Sample	 
Comments	 
Filename	C:\Data\西出研\梅木\210903\PPOChloranilLiTfSI30wt_2θ_θ.raw
Goniometer	SmartLab(In-plane)
Attachment	Zステージ単独
Monochromater	None
X	0
Y	0
Z	-0.35756
ScanningMode	2Theta/Theta
ScanningType	Continuos Scanning
X-Ray	40kV/30mA
入射スリット	2/3deg
受光スリット1	20.000mm
受光スリット2	20.000mm
Cu_K-beta	
Start	10
Stop	90
Step	0.01
Speed	10.4018
Offset	0
10	24947
10.01	25779.2
10.02	25831.2
10.03	26108.6
10.04	24999
10.05	25345.8
10.06	26646
10.07	26490
10.08	26125.9
10.09	25484.5
10.1	26854
10.11	26923.4
10.12	27010.1
10.13	27391.5
10.14	25519.1
10.15	25709.8
10.16	26576.7
10.17	27720.9
10.18	26646
10.19	25033.7
10.2	26073.9
10.21	25657.8
10.22	26906
10.23	26490
10.24	26594
10.25	27079.4
10.26	26715.3
10.27	26975.4
10.28	27131.4
10.29	26836.7
10.3	26073.9
10.31	26472.6
10.32	27270.1
10.33	27460.8
10.34	26386
10.35	26299.3
10.36	25935.2
10.37	25969.9
10.38	26836.7
10.39	26992.7
10.4	26732.7
10.41	26403.3
10.42	26975.4
10.43	26663.3
10.44	27547.5
10.45	27200.8
10.46	27616.8
10.47	27720.9
10.48	27391.5
10.49	27824.9
10.5	27686.2
10.51	26906
10.52	26854
10.53	26888.7
10.54	28136.9
10.55	27391.5
10.56	28275.6
10.57	28795.7
10.58	27928.9
10.59	27616.8
10.6	27599.5
10.61	28761
10.62	30113.3
10.63	28951.7
10.64	29142.4
10.65	28674.4
10.66	29558.5
10.67	30910.7
10.68	29662.5
10.69	30720
10.7	31066.8
10.71	30737.4
10.72	31742.9
10.73	32159
10.74	33771.3
10.75	33840.6
10.76	34118
10.77	35418.2
10.78	35470.2
10.79	35921
10.8	37776
10.81	37342.5
10.82	39613.6
10.83	39787
10.84	39648.3
10.85	39683
10.86	38521.4
10.87	38660.1
10.88	35470.2
10.89	33493.9
10.9	32297.7
10.91	30217.3
10.92	30304
10.93	27339.5
10.94	30061.3
10.95	28899.7
10.96	27582.2
10.97	28206.3
10.98	25831.2
10.99	27079.4
11	27478.1
11.01	27530.2
11.02	27062.1
11.03	27304.8
11.04	27356.8
11.05	26940.7
11.06	26073.9
11.07	26646
11.08	27062.1
11.09	26594
11.1	27686.2
11.11	27790.2
11.12	27183.4
11.13	26958.1
11.14	27616.8
11.15	25484.5
11.16	26680.7
11.17	26715.3
11.18	26784.7
11.19	26871.4
11.2	26438
11.21	26195.3
11.22	26490
11.23	25813.9
11.24	27478.1
11.25	27339.5
11.26	27599.5
11.27	27738.2
11.28	27859.5
11.29	26507.3
11.3	27703.5
11.31	26472.6
11.32	27547.5
11.33	26992.7
11.34	26715.3
11.35	27270.1
11.36	27460.8
11.37	28136.9
11.38	25987.2
11.39	27443.5
11.4	27304.8
11.41	28518.3
11.42	27408.8
11.43	27582.2
11.44	26871.4
11.45	27443.5
11.46	27686.2
11.47	26663.3
11.48	27738.2
11.49	26195.3
11.5	27079.4
11.51	27530.2
11.52	27478.1
11.53	27131.4
11.54	26212.6
11.55	26264.6
11.56	26750
11.57	26802
11.58	27304.8
11.59	27720.9
11.6	27010.1
11.61	27062.1
11.62	27079.4
11.63	27287.4
11.64	26281.9
11.65	28362.3
11.66	28553
11.67	28136.9
11.68	26316.6
11.69	27460.8
11.7	27426.1
11.71	26576.7
11.72	27599.5
11.73	26940.7
11.74	26906
11.75	27582.2
11.76	27096.7
11.77	27114.1
11.78	28345
11.79	27218.1
11.8	27374.1
11.81	26143.2
11.82	27200.8
11.83	27408.8
11.84	28293
11.85	29073.1
11.86	28015.6
11.87	27322.1
11.88	28501
11.89	27842.2
11.9	27166.1
11.91	27790.2
11.92	27547.5
11.93	27807.5
11.94	26715.3
11.95	27218.1
11.96	27235.4
11.97	27963.6
11.98	27339.5
11.99	27720.9
12	27304.8
12.01	27564.8
12.02	27599.5
12.03	28188.9
12.04	27772.9
12.05	28067.6
12.06	28067.6
12.07	28050.2
12.08	27911.6
12.09	27131.4
12.1	27183.4
12.11	28518.3
12.12	27616.8
12.13	27928.9
12.14	28414.3
12.15	27304.8
12.16	26992.7
12.17	27998.2
12.18	28310.3
12.19	28171.6
12.2	27356.8
12.21	27998.2
12.22	27980.9
12.23	27894.2
12.24	28917.1
12.25	26368.6
12.26	28449
12.27	28709
12.28	28084.9
12.29	27235.4
12.3	28449
12.31	29419.8
12.32	28240.9
12.33	27755.5
12.34	29853.2
12.35	28414.3
12.36	27755.5
12.37	28240.9
12.38	28431.6
12.39	27842.2
12.4	27530.2
12.41	28726.4
12.42	28986.4
12.43	28397
12.44	29315.8
12.45	28899.7
12.46	27478.1
12.47	27686.2
12.48	29281.1
12.49	28449
12.5	28847.7
12.51	28310.3
12.52	28414.3
12.53	28587.7
12.54	27720.9
12.55	28171.6
12.56	27512.8
12.57	27963.6
12.58	26403.3
12.59	27928.9
12.6	28587.7
12.61	27062.1
12.62	28570.3
12.63	28622.3
12.64	27547.5
12.65	27391.5
12.66	28986.4
12.67	30113.3
12.68	28327.6
12.69	29454.5
12.7	28969.1
12.71	28778.4
12.72	27859.5
12.73	29194.4
12.74	29662.5
12.75	28449
12.76	27824.9
12.77	28414.3
12.78	28969.1
12.79	29281.1
12.8	28778.4
12.81	29627.9
12.82	28345
12.83	27824.9
12.84	28518.3
12.85	28622.3
12.86	29575.8
12.87	28466.3
12.88	27582.2
12.89	29246.5
12.9	30061.3
12.91	29021.1
12.92	29090.4
12.93	29246.5
12.94	28709
12.95	27946.2
12.96	28865.1
12.97	28882.4
12.98	30373.3
12.99	28587.7
13	28466.3
13.01	27720.9
13.02	27651.5
13.03	28709
13.04	29558.5
13.05	29489.2
13.06	28899.7
13.07	28518.3
13.08	27755.5
13.09	28431.6
13.1	30338.6
13.11	29610.5
13.12	27998.2
13.13	28622.3
13.14	28154.3
13.15	28258.3
13.16	28657
13.17	29090.4
13.18	28882.4
13.19	29454.5
13.2	29281.1
13.21	29610.5
13.22	29558.5
13.23	29506.5
13.24	29211.8
13.25	28691.7
13.26	27807.5
13.27	28327.6
13.28	29541.2
13.29	29679.9
13.3	28570.3
13.31	28795.7
13.32	28431.6
13.33	28865.1
13.34	29003.7
13.35	29610.5
13.36	28414.3
13.37	29038.4
13.38	29645.2
13.39	28310.3
13.4	29766.5
13.41	30113.3
13.42	29749.2
13.43	29558.5
13.44	28709
13.45	29177.1
13.46	29627.9
13.47	28570.3
13.48	29558.5
13.49	29090.4
13.5	29471.8
13.51	29870.6
13.52	29905.2
13.53	28119.6
13.54	29333.1
13.55	29627.9
13.56	28778.4
13.57	28119.6
13.58	29246.5
13.59	30009.3
13.6	29107.8
13.61	29298.5
13.62	29263.8
13.63	29229.1
13.64	27911.6
13.65	29801.2
13.66	30200
13.67	28778.4
13.68	29350.5
13.69	28847.7
13.7	29922.6
13.71	29749.2
13.72	28709
13.73	29645.2
13.74	29246.5
13.75	29679.9
13.76	29939.9
13.77	29939.9
13.78	30269.3
13.79	29801.2
13.8	29558.5
13.81	28899.7
13.82	29437.2
13.83	29645.2
13.84	29593.2
13.85	28570.3
13.86	29246.5
13.87	30876.1
13.88	28726.4
13.89	29385.1
13.9	29801.2
13.91	28691.7
13.92	28067.6
13.93	29610.5
13.94	29506.5
13.95	29385.1
13.96	28899.7
13.97	30460
13.98	29055.8
13.99	28639.7
14	30113.3
14.01	29055.8
14.02	29835.9
14.03	28882.4
14.04	29402.5
14.05	29159.8
14.06	29454.5
14.07	30512
14.08	31032.1
14.09	29437.2
14.1	29749.2
14.11	30009.3
14.12	30304
14.13	29281.1
14.14	29073.1
14.15	29887.9
14.16	29905.2
14.17	29801.2
14.18	29575.8
14.19	29575.8
14.2	29575.8
14.21	29454.5
14.22	29454.5
14.23	29575.8
14.24	27530.2
14.25	28067.6
14.26	28293
14.27	29159.8
14.28	28709
14.29	29887.9
14.3	29367.8
14.31	29749.2
14.32	29957.2
14.33	29887.9
14.34	29246.5
14.35	29801.2
14.36	29645.2
14.37	29142.4
14.38	29107.8
14.39	29887.9
14.4	29090.4
14.41	29055.8
14.42	29957.2
14.43	28917.1
14.44	29471.8
14.45	29939.9
14.46	28917.1
14.47	30269.3
14.48	29801.2
14.49	29731.9
14.5	28397
14.51	29818.6
14.52	29350.5
14.53	28310.3
14.54	29489.2
14.55	28345
14.56	28188.9
14.57	29402.5
14.58	29073.1
14.59	28969.1
14.6	28275.6
14.61	28986.4
14.62	29073.1
14.63	29090.4
14.64	29194.4
14.65	29159.8
14.66	29887.9
14.67	29905.2
14.68	29454.5
14.69	28795.7
14.7	28622.3
14.71	28206.3
14.72	28535.7
14.73	28171.6
14.74	29558.5
14.75	28674.4
14.76	29489.2
14.77	30356
14.78	27980.9
14.79	28865.1
14.8	28345
14.81	29246.5
14.82	28691.7
14.83	27668.8
14.84	28813
14.85	28726.4
14.86	28622.3
14.87	28709
14.88	27998.2
14.89	28639.7
14.9	27842.2
14.91	29627.9
14.92	28275.6
14.93	29922.6
14.94	28102.3
14.95	29610.5
14.96	28899.7
14.97	29281.1
14.98	29194.4
14.99	28951.7
15	28934.4
15.01	29055.8
15.02	30598.7
15.03	28882.4
15.04	27946.2
15.05	28275.6
15.06	28136.9
15.07	27980.9
15.08	29315.8
15.09	27824.9
15.1	28726.4
15.11	29177.1
15.12	28570.3
15.13	28067.6
15.14	29194.4
15.15	28015.6
15.16	28778.4
15.17	27807.5
15.18	28553
15.19	28726.4
15.2	28761
15.21	29125.1
15.22	28917.1
15.23	28206.3
15.24	28102.3
15.25	28414.3
15.26	28431.6
15.27	28136.9
15.28	27616.8
15.29	28188.9
15.3	29229.1
15.31	27894.2
15.32	28813
15.33	28726.4
15.34	28969.1
15.35	28119.6
15.36	28483.7
15.37	28119.6
15.38	27720.9
15.39	27616.8
15.4	29038.4
15.41	29419.8
15.42	27582.2
15.43	28674.4
15.44	29107.8
15.45	27876.9
15.46	28015.6
15.47	29627.9
15.48	28362.3
15.49	28466.3
15.5	28639.7
15.51	29558.5
15.52	29957.2
15.53	27876.9
15.54	28362.3
15.55	28553
15.56	29558.5
15.57	28899.7
15.58	28639.7
15.59	28639.7
15.6	29107.8
15.61	26490
15.62	28449
15.63	27824.9
15.64	28414.3
15.65	28674.4
15.66	28917.1
15.67	28327.6
15.68	29177.1
15.69	27790.2
15.7	27460.8
15.71	27322.1
15.72	27426.1
15.73	27235.4
15.74	28934.4
15.75	28535.7
15.76	27443.5
15.77	28431.6
15.78	28032.9
15.79	27998.2
15.8	27530.2
15.81	28605
15.82	28327.6
15.83	28553
15.84	28709
15.85	27096.7
15.86	28761
15.87	29402.5
15.88	28362.3
15.89	28032.9
15.9	28934.4
15.91	28709
15.92	28275.6
15.93	28067.6
15.94	28050.2
15.95	27582.2
15.96	28362.3
15.97	28258.3
15.98	27738.2
15.99	28483.7
16	26784.7
16.01	28136.9
16.02	28553
16.03	28223.6
16.04	29315.8
16.05	27304.8
16.06	27443.5
16.07	27599.5
16.08	27183.4
16.09	28622.3
16.1	28345
16.11	27651.5
16.12	27755.5
16.13	28466.3
16.14	27651.5
16.15	27790.2
16.16	28154.3
16.17	28154.3
16.18	28154.3
16.19	27391.5
16.2	27668.8
16.21	27911.6
16.22	28743.7
16.23	27790.2
16.24	27668.8
16.25	28188.9
16.26	27408.8
16.27	27703.5
16.28	27755.5
16.29	26663.3
16.3	26975.4
16.31	27530.2
16.32	27876.9
16.33	26871.4
16.34	27460.8
16.35	27200.8
16.36	26438
16.37	27790.2
16.38	27946.2
16.39	27478.1
16.4	27668.8
16.41	28709
16.42	28293
16.43	27564.8
16.44	27443.5
16.45	28206.3
16.46	28449
16.47	28171.6
16.48	27460.8
16.49	27911.6
16.5	27755.5
16.51	29038.4
16.52	28102.3
16.53	27634.2
16.54	27651.5
16.55	27547.5
16.56	28587.7
16.57	27079.4
16.58	28587.7
16.59	28119.6
16.6	27599.5
16.61	27062.1
16.62	28136.9
16.63	27408.8
16.64	27287.4
16.65	27270.1
16.66	27408.8
16.67	26871.4
16.68	27443.5
16.69	27512.8
16.7	27686.2
16.71	27790.2
16.72	26351.3
16.73	27114.1
16.74	27772.9
16.75	28275.6
16.76	26836.7
16.77	27460.8
16.78	27842.2
16.79	27530.2
16.8	28067.6
16.81	27443.5
16.82	27530.2
16.83	27547.5
16.84	26628.7
16.85	26750
16.86	27564.8
16.87	26940.7
16.88	28362.3
16.89	28293
16.9	28345
16.91	27634.2
16.92	29142.4
16.93	29506.5
16.94	28466.3
16.95	28518.3
16.96	29679.9
16.97	30772.1
16.98	30182.6
16.99	31396.2
17	31084.1
17.01	31500.2
17.02	32713.7
17.03	32332.3
17.04	34655.4
17.05	34950.1
17.06	34690.1
17.07	37030.5
17.08	37481.2
17.09	38954.8
17.1	40653.8
17.11	42439.4
17.12	42439.4
17.13	46149.4
17.14	48299.1
17.15	48125.8
17.16	49738
17.17	52009.1
17.18	53708.1
17.19	53656.1
17.2	54991
17.21	54245.5
17.22	53326.7
17.23	51593
17.24	46929.6
17.25	45161.2
17.26	40445.8
17.27	38504.1
17.28	36510.4
17.29	33459.2
17.3	30945.4
17.31	29887.9
17.32	30147.9
17.33	27946.2
17.34	29575.8
17.35	27564.8
17.36	26819.4
17.37	25692.5
17.38	26750
17.39	27027.4
17.4	27322.1
17.41	26975.4
17.42	26039.2
17.43	26836.7
17.44	27443.5
17.45	26507.3
17.46	25935.2
17.47	25085.7
17.48	25900.5
17.49	25675.2
17.5	26316.6
17.51	26195.3
17.52	26039.2
17.53	26351.3
17.54	26004.6
17.55	26021.9
17.56	25241.8
17.57	25779.2
17.58	26229.9
17.59	26576.7
17.6	26281.9
17.61	26836.7
17.62	26594
17.63	26039.2
17.64	26073.9
17.65	25640.5
17.66	25467.1
17.67	25553.8
17.68	26871.4
17.69	25935.2
17.7	25051.1
17.71	25519.1
17.72	25883.2
17.73	26039.2
17.74	25259.1
17.75	25588.5
17.76	25328.4
17.77	26472.6
17.78	24444.3
17.79	25987.2
17.8	25363.1
17.81	26472.6
17.82	25675.2
17.83	24739
17.84	24981.7
17.85	25103.1
17.86	25657.8
17.87	24929.7
17.88	26212.6
17.89	25883.2
17.9	25831.2
17.91	25345.8
17.92	25900.5
17.93	25501.8
17.94	24583
17.95	24860.4
17.96	25519.1
17.97	25328.4
17.98	25883.2
17.99	25744.5
18	25276.4
18.01	25328.4
18.02	25380.4
18.03	25484.5
18.04	25467.1
18.05	26524.6
18.06	25519.1
18.07	25883.2
18.08	25935.2
18.09	25865.9
18.1	27010.1
18.11	27322.1
18.12	26160.6
18.13	27322.1
18.14	27547.5
18.15	27218.1
18.16	27980.9
18.17	28275.6
18.18	27183.4
18.19	28570.3
18.2	28934.4
18.21	28501
18.22	30095.9
18.23	31361.5
18.24	32193.6
18.25	31638.9
18.26	31673.5
18.27	33199.1
18.28	34846.1
18.29	36233
18.3	37550.6
18.31	36042.3
18.32	38677.4
18.33	39214.9
18.34	38816.1
18.35	40289.7
18.36	40064.4
18.37	39908.3
18.38	38209.4
18.39	35019.5
18.4	34326
18.41	34430
18.42	31430.8
18.43	30286.6
18.44	28171.6
18.45	27235.4
18.46	26940.7
18.47	26750
18.48	26750
18.49	26021.9
18.5	25241.8
18.51	25796.5
18.52	25571.1
18.53	25328.4
18.54	25519.1
18.55	25137.7
18.56	26021.9
18.57	24999
18.58	25623.2
18.59	24357.6
18.6	25467.1
18.61	25363.1
18.62	24964.4
18.63	24929.7
18.64	24877.7
18.65	24964.4
18.66	24912.4
18.67	24374.9
18.68	24981.7
18.69	25484.5
18.7	25692.5
18.71	25172.4
18.72	25588.5
18.73	26004.6
18.74	24843
18.75	23629.5
18.76	24947
18.77	25276.4
18.78	25397.8
18.79	25692.5
18.8	25085.7
18.81	26316.6
18.82	25848.5
18.83	26992.7
18.84	26542
18.85	26923.4
18.86	27391.5
18.87	26975.4
18.88	28240.9
18.89	29073.1
18.9	29194.4
18.91	29974.6
18.92	29887.9
18.93	31950.9
18.94	31309.5
18.95	32800.4
18.96	34222
18.97	36371.7
18.98	37169.2
18.99	38244
19	40549.8
19.01	41433.9
19.02	44034.4
19.03	46218.8
19.04	48923.2
19.05	52806.6
19.06	55667.1
19.07	57522.1
19.08	61856.2
19.09	64092.6
19.1	68097.3
19.11	72570
19.12	75759.9
19.13	77892.3
19.14	80614.1
19.15	81099.5
19.16	78343.1
19.17	76106.7
19.18	70749.7
19.19	66224.9
19.2	59810.5
19.21	54089.5
19.22	48333.8
19.23	44086.4
19.24	38140
19.25	36129
19.26	33441.9
19.27	31881.6
19.28	30546.7
19.29	27062.1
19.3	28223.6
19.31	26923.4
19.32	25935.2
19.33	25865.9
19.34	25501.8
19.35	26767.4
19.36	26628.7
19.37	25796.5
19.38	26646
19.39	27235.4
19.4	27668.8
19.41	27720.9
19.42	27443.5
19.43	28934.4
19.44	27235.4
19.45	29263.8
19.46	29662.5
19.47	30806.7
19.48	29939.9
19.49	30234.6
19.5	30512
19.51	30997.4
19.52	30858.7
19.53	30858.7
19.54	30650.7
19.55	28969.1
19.56	29506.5
19.57	28223.6
19.58	27651.5
19.59	27859.5
19.6	25813.9
19.61	25588.5
19.62	24999
19.63	24479
19.64	24340.3
19.65	23716.2
19.66	23369.4
19.67	23681.5
19.68	23334.8
19.69	24114.9
19.7	23178.7
19.71	23213.4
19.72	22780
19.73	23872.2
19.74	24305.6
19.75	23889.5
19.76	23404.1
19.77	22138.5
19.78	23196.1
19.79	23889.5
19.8	24201.6
19.81	22606.6
19.82	23941.5
19.83	23404.1
19.84	22606.6
19.85	23144.1
19.86	23698.8
19.87	24218.9
19.88	22693.3
19.89	23577.5
19.9	23404.1
19.91	22329.2
19.92	22936
19.93	23126.7
19.94	21982.5
19.95	22832
19.96	23976.2
19.97	22901.3
19.98	22450.6
19.99	24340.3
20	23248.1
20.01	22606.6
20.02	22554.6
20.03	23750.8
20.04	23525.5
20.05	22866.7
20.06	21930.5
20.07	22346.6
20.08	22866.7
20.09	22381.3
20.1	24548.3
20.11	22641.3
20.12	21930.5
20.13	21687.8
20.14	22086.5
20.15	22467.9
20.16	22780
20.17	22155.9
20.18	21653.1
20.19	22259.9
20.2	22918.7
20.21	22259.9
20.22	23178.7
20.23	23178.7
20.24	22936
20.25	23248.1
20.26	22780
20.27	22901.3
20.28	22970.7
20.29	22676
20.3	21826.5
20.31	21878.5
20.32	22467.9
20.33	22710.6
20.34	23508.1
20.35	22485.3
20.36	22173.2
20.37	22901.3
20.38	21826.5
20.39	22589.3
20.4	22363.9
20.41	23646.8
20.42	22728
20.43	21878.5
20.44	21913.2
20.45	23542.8
20.46	22537.3
20.47	23438.8
20.48	22103.9
20.49	22433.3
20.5	22624
20.51	22953.4
20.52	22866.7
20.53	22624
20.54	21947.8
20.55	23525.5
20.56	22519.9
20.57	23057.4
20.58	21826.5
20.59	21965.2
20.6	23109.4
20.61	23386.8
20.62	22710.6
20.63	22034.5
20.64	21913.2
20.65	22398.6
20.66	22138.5
20.67	23386.8
20.68	21861.2
20.69	22554.6
20.7	20977
20.71	21410.4
20.72	21809.2
20.73	21531.8
20.74	21843.8
20.75	22346.6
20.76	21965.2
20.77	22953.4
20.78	20977
20.79	23161.4
20.8	22086.5
20.81	22034.5
20.82	21427.8
20.83	21653.1
20.84	21861.2
20.85	21913.2
20.86	21930.5
20.87	21323.7
20.88	22884
20.89	21497.1
20.9	22728
20.91	22086.5
20.92	21895.8
20.93	21965.2
20.94	21826.5
20.95	22433.3
20.96	22745.3
20.97	22259.9
20.98	21237.1
20.99	21601.1
21	21462.4
21.01	20821
21.02	21809.2
21.03	21843.8
21.04	22121.2
21.05	21913.2
21.06	22537.3
21.07	21774.5
21.08	22190.6
21.09	22485.3
21.1	22069.2
21.11	22259.9
21.12	22294.6
21.13	22242.6
21.14	21653.1
21.15	21566.4
21.16	22797.3
21.17	21566.4
21.18	21705.1
21.19	21046.4
21.2	21618.5
21.21	21965.2
21.22	21809.2
21.23	21687.8
21.24	21618.5
21.25	22693.3
21.26	22173.2
21.27	21791.8
21.28	22311.9
21.29	22173.2
21.3	22624
21.31	23126.7
21.32	22901.3
21.33	22294.6
21.34	23230.7
21.35	22398.6
21.36	23837.5
21.37	23369.4
21.38	22190.6
21.39	22624
21.4	22606.6
21.41	22797.3
21.42	22814.7
21.43	21687.8
21.44	21861.2
21.45	22485.3
21.46	21913.2
21.47	21081
21.48	21375.7
21.49	21514.4
21.5	21687.8
21.51	22485.3
21.52	22866.7
21.53	22849.3
21.54	22519.9
21.55	22190.6
21.56	22814.7
21.57	21739.8
21.58	22901.3
21.59	22936
21.6	23178.7
21.61	22814.7
21.62	23854.8
21.63	23438.8
21.64	24531
21.65	23404.1
21.66	24687
21.67	24600.3
21.68	24062.9
21.69	25276.4
21.7	25519.1
21.71	26039.2
21.72	25623.2
21.73	24444.3
21.74	24010.9
21.75	24479
21.76	23386.8
21.77	24045.5
21.78	23508.1
21.79	22918.7
21.8	22832
21.81	21618.5
21.82	21583.8
21.83	22658.6
21.84	22034.5
21.85	21965.2
21.86	20595.6
21.87	21046.4
21.88	21601.1
21.89	20508.9
21.9	21046.4
21.91	22207.9
21.92	21809.2
21.93	21150.4
21.94	20890.3
21.95	20006.2
21.96	20682.3
21.97	21029
21.98	22121.2
21.99	21462.4
22	21323.7
22.01	21583.8
22.02	20682.3
22.03	19763.5
22.04	20370.2
22.05	21150.4
22.06	20907.7
22.07	21965.2
22.08	21341.1
22.09	21566.4
22.1	21514.4
22.11	20456.9
22.12	20300.9
22.13	21427.8
22.14	20647.6
22.15	20838.3
22.16	21445.1
22.17	20734.3
22.18	20266.2
22.19	21202.4
22.2	21445.1
22.21	21341.1
22.22	21757.1
22.23	21254.4
22.24	21670.5
22.25	20977
22.26	21826.5
22.27	21254.4
22.28	19919.5
22.29	19815.5
22.3	21011.7
22.31	21133
22.32	20821
22.33	21289.1
22.34	21670.5
22.35	21618.5
22.36	21254.4
22.37	22537.3
22.38	20699.6
22.39	21497.1
22.4	21375.7
22.41	21375.7
22.42	20959.7
22.43	20855.7
22.44	20890.3
22.45	21219.7
22.46	21497.1
22.47	20023.5
22.48	22329.2
22.49	20786.3
22.5	21167.7
22.51	21410.4
22.52	21271.7
22.53	20474.3
22.54	21167.7
22.55	21063.7
22.56	20734.3
22.57	21254.4
22.58	20838.3
22.59	20751.6
22.6	21514.4
22.61	20665
22.62	20942.3
22.63	20092.9
22.64	20300.9
22.65	20248.9
22.66	20543.6
22.67	20144.9
22.68	20682.3
22.69	20300.9
22.7	20214.2
22.71	20994.3
22.72	21150.4
22.73	20821
22.74	21098.4
22.75	21046.4
22.76	21670.5
22.77	21427.8
22.78	21965.2
22.79	20422.2
22.8	20162.2
22.81	20300.9
22.82	21774.5
22.83	20959.7
22.84	21497.1
22.85	21185
22.86	21167.7
22.87	21271.7
22.88	22519.9
22.89	22294.6
22.9	21341.1
22.91	21913.2
22.92	23438.8
22.93	22953.4
22.94	22294.6
22.95	24028.2
22.96	23109.4
22.97	23386.8
22.98	24392.3
22.99	25605.8
23	23230.7
23.01	24999
23.02	26177.9
23.03	25432.5
23.04	27911.6
23.05	27876.9
23.06	29107.8
23.07	29939.9
23.08	32002.9
23.09	33979.3
23.1	35348.9
23.11	35921
23.12	37290.5
23.13	37203.9
23.14	38573.4
23.15	39076.2
23.16	38174.7
23.17	37932
23.18	35678.3
23.19	33424.5
23.2	32401.7
23.21	30408
23.22	28795.7
23.23	27426.1
23.24	26923.4
23.25	24409.6
23.26	24201.6
23.27	22519.9
23.28	21150.4
23.29	20942.3
23.3	21011.7
23.31	20873
23.32	20838.3
23.33	19746.1
23.34	20873
23.35	20717
23.36	20231.5
23.37	19590.1
23.38	21219.7
23.39	20595.6
23.4	19312.7
23.41	19295.4
23.42	19815.5
23.43	20404.9
23.44	20942.3
23.45	19330.1
23.46	19642.1
23.47	19607.4
23.48	21133
23.49	18879.3
23.5	19971.5
23.51	20092.9
23.52	19278
23.53	19694.1
23.54	19382.1
23.55	20699.6
23.56	20456.9
23.57	20196.9
23.58	19902.2
23.59	20179.5
23.6	19208.7
23.61	19711.5
23.62	19260.7
23.63	19382.1
23.64	19971.5
23.65	19312.7
23.66	19780.8
23.67	19330.1
23.68	19624.8
23.69	19763.5
23.7	19850.1
23.71	19711.5
23.72	18966
23.73	20543.6
23.74	19676.8
23.75	19156.7
23.76	17995.2
23.77	18185.9
23.78	19295.4
23.79	18844.6
23.8	18671.3
23.81	19174
23.82	19226
23.83	20075.5
23.84	19624.8
23.85	19624.8
23.86	19260.7
23.87	19226
23.88	19572.8
23.89	18948.7
23.9	19035.3
23.91	19832.8
23.92	20456.9
23.93	19780.8
23.94	18844.6
23.95	19798.1
23.96	19330.1
23.97	20231.5
23.98	20179.5
23.99	19226
24	19538.1
24.01	19884.8
24.02	19052.7
24.03	19330.1
24.04	19243.4
24.05	20092.9
24.06	19399.4
24.07	19000.7
24.08	19780.8
24.09	19503.4
24.1	19590.1
24.11	19642.1
24.12	20058.2
24.13	20508.9
24.14	18914
24.15	19867.5
24.16	19607.4
24.17	19884.8
24.18	19070
24.19	19572.8
24.2	19555.4
24.21	19590.1
24.22	19503.4
24.23	19052.7
24.24	18255.2
24.25	20179.5
24.26	19139.4
24.27	20352.9
24.28	19572.8
24.29	19018
24.3	19468.7
24.31	20595.6
24.32	19243.4
24.33	20110.2
24.34	19954.2
24.35	20387.6
24.36	21011.7
24.37	19312.7
24.38	20491.6
24.39	19884.8
24.4	21115.7
24.41	20595.6
24.42	20734.3
24.43	21913.2
24.44	21757.1
24.45	21445.1
24.46	22121.2
24.47	22415.9
24.48	23473.4
24.49	23820.2
24.5	24739
24.51	26091.2
24.52	26646
24.53	27512.8
24.54	28951.7
24.55	30095.9
24.56	30512
24.57	33927.3
24.58	35296.9
24.59	35955.6
24.6	35799.6
24.61	39630.9
24.62	41035.2
24.63	41815.3
24.64	43826.3
24.65	45993.4
24.66	44554.5
24.67	42994.2
24.68	43150.2
24.69	42994.2
24.7	40029.7
24.71	36839.8
24.72	35140.8
24.73	33875.3
24.74	31742.9
24.75	32349.7
24.76	29853.2
24.77	29922.6
24.78	29142.4
24.79	28275.6
24.8	27564.8
24.81	30113.3
24.82	30095.9
24.83	29818.6
24.84	31968.3
24.85	33060.5
24.86	34724.8
24.87	37619.9
24.88	37567.9
24.89	40931.2
24.9	41728.6
24.91	43063.5
24.92	44606.5
24.93	45976.1
24.94	45924
24.95	45351.9
24.96	45195.9
24.97	42803.5
24.98	40047
24.99	37429.2
25	34568.7
25.01	31638.9
25.02	30460
25.03	27148.8
25.04	26438
25.05	24496.3
25.06	23958.9
25.07	22814.7
25.08	20942.3
25.09	20803.6
25.1	20075.5
25.11	21427.8
25.12	20006.2
25.13	19572.8
25.14	20023.5
25.15	19694.1
25.16	19728.8
25.17	19971.5
25.18	20404.9
25.19	19919.5
25.2	19520.8
25.21	20387.6
25.22	20404.9
25.23	19919.5
25.24	19642.1
25.25	19850.1
25.26	20439.6
25.27	20977
25.28	20578.3
25.29	20075.5
25.3	19867.5
25.31	19104.7
25.32	19347.4
25.33	19330.1
25.34	18480.6
25.35	18445.9
25.36	18393.9
25.37	18151.2
25.38	17388.4
25.39	17752.4
25.4	17631.1
25.41	17579.1
25.42	17908.5
25.43	17665.8
25.44	17700.4
25.45	17665.8
25.46	17561.7
25.47	18272.5
25.48	17301.7
25.49	17145.7
25.5	17093.7
25.51	17284.4
25.52	17787.1
25.53	17908.5
25.54	16989.6
25.55	17683.1
25.56	17579.1
25.57	16018.8
25.58	17440.4
25.59	17631.1
25.6	17232.4
25.61	17093.7
25.62	16400.2
25.63	17804.5
25.64	17908.5
25.65	17440.4
25.66	16746.9
25.67	17960.5
25.68	18168.5
25.69	17353.7
25.7	17891.1
25.71	17579.1
25.72	17371
25.73	17457.7
25.74	17527.1
25.75	17059
25.76	16798.9
25.77	16868.3
25.78	16764.3
25.79	16348.2
25.8	16660.3
25.81	16417.5
25.82	17371
25.83	16729.6
25.84	16851
25.85	16816.3
25.86	16521.6
25.87	16313.5
25.88	16469.6
25.89	16348.2
25.9	16521.6
25.91	17301.7
25.92	16798.9
25.93	16538.9
25.94	17475.1
25.95	16226.8
25.96	17249.7
25.97	16746.9
25.98	16833.6
25.99	16469.6
26	17093.7
26.01	16694.9
26.02	16937.6
26.03	17163
26.04	16677.6
26.05	15949.5
26.06	16798.9
26.07	16400.2
26.08	15533.4
26.09	16764.3
26.1	16764.3
26.11	16140.2
26.12	16816.3
26.13	15741.4
26.14	16278.9
26.15	17301.7
26.16	15949.5
26.17	16209.5
26.18	16261.5
26.19	15550.7
26.2	15776.1
26.21	16296.2
26.22	16140.2
26.23	16382.9
26.24	16920.3
26.25	16486.9
26.26	16365.5
26.27	15550.7
26.28	16798.9
26.29	16278.9
26.3	15568.1
26.31	15273.3
26.32	15602.7
26.33	16140.2
26.34	16018.8
26.35	16226.8
26.36	15914.8
26.37	16261.5
26.38	16209.5
26.39	15238.7
26.4	15810.8
26.41	16920.3
26.42	16452.2
26.43	16330.9
26.44	15776.1
26.45	16469.6
26.46	16417.5
26.47	17111
26.48	16313.5
26.49	16226.8
26.5	16434.9
26.51	16538.9
26.52	16226.8
26.53	15706.8
26.54	15464
26.55	15776.1
26.56	16105.5
26.57	16781.6
26.58	17319
26.59	15186.7
26.6	16434.9
26.61	15949.5
26.62	15984.1
26.63	16296.2
26.64	15290.7
26.65	15412
26.66	16608.2
26.67	16521.6
26.68	15845.4
26.69	15654.7
26.7	16070.8
26.71	15793.4
26.72	15481.4
26.73	16296.2
26.74	15689.4
26.75	15880.1
26.76	15862.8
26.77	15568.1
26.78	15516.1
26.79	15065.3
26.8	16521.6
26.81	15533.4
26.82	15897.5
26.83	15706.8
26.84	15117.3
26.85	15481.4
26.86	15360
26.87	15169.3
26.88	15620.1
26.89	16226.8
26.9	15897.5
26.91	15637.4
26.92	15082.6
26.93	15481.4
26.94	15238.7
26.95	16157.5
26.96	15689.4
26.97	15082.6
26.98	15342.7
26.99	15672.1
27	15949.5
27.01	14735.9
27.02	14735.9
27.03	15256
27.04	15342.7
27.05	14996
27.06	14683.9
27.07	15637.4
27.08	15134.7
27.09	14666.6
27.1	15290.7
27.11	15186.7
27.12	15672.1
27.13	15516.1
27.14	15100
27.15	15793.4
27.16	15065.3
27.17	15481.4
27.18	15325.4
27.19	15082.6
27.2	14458.5
27.21	15984.1
27.22	15412
27.23	14735.9
27.24	14666.6
27.25	14891.9
27.26	15082.6
27.27	15741.4
27.28	15568.1
27.29	15880.1
27.3	15360
27.31	15949.5
27.32	15221.3
27.33	14822.6
27.34	15481.4
27.35	14770.6
27.36	14874.6
27.37	14735.9
27.38	15429.4
27.39	14735.9
27.4	15117.3
27.41	15117.3
27.42	14822.6
27.43	14198.5
27.44	14891.9
27.45	14718.6
27.46	14094.5
27.47	15238.7
27.48	15602.7
27.49	15134.7
27.5	15342.7
27.51	14701.2
27.52	13817.1
27.53	14181.2
27.54	14389.2
27.55	15030.6
27.56	14371.9
27.57	15134.7
27.58	15256
27.59	14007.8
27.6	14805.3
27.61	15464
27.62	14025.1
27.63	14787.9
27.64	14891.9
27.65	15013.3
27.66	14822.6
27.67	14961.3
27.68	14805.3
27.69	14961.3
27.7	14129.1
27.71	14701.2
27.72	15134.7
27.73	15013.3
27.74	14423.9
27.75	14787.9
27.76	14735.9
27.77	14718.6
27.78	14042.5
27.79	14753.3
27.8	13678.4
27.81	14302.5
27.82	14475.9
27.83	14423.9
27.84	14857.3
27.85	14337.2
27.86	14510.5
27.87	14371.9
27.88	14441.2
27.89	15221.3
27.9	15082.6
27.91	15030.6
27.92	14579.9
27.93	14441.2
27.94	14718.6
27.95	15152
27.96	14597.2
27.97	14025.1
27.98	14371.9
27.99	14181.2
28	13921.1
28.01	14527.9
28.02	14631.9
28.03	15065.3
28.04	13886.4
28.05	14978.6
28.06	14441.2
28.07	14614.6
28.08	15134.7
28.09	14094.5
28.1	13903.8
28.11	14666.6
28.12	14805.3
28.13	14614.6
28.14	14198.5
28.15	14319.8
28.16	14111.8
28.17	14944
28.18	14146.5
28.19	14493.2
28.2	15238.7
28.21	14614.6
28.22	14215.8
28.23	13574.4
28.24	14285.2
28.25	14683.9
28.26	14302.5
28.27	13678.4
28.28	14285.2
28.29	14267.8
28.3	14111.8
28.31	14423.9
28.32	14787.9
28.33	13539.7
28.34	13782.4
28.35	13886.4
28.36	13487.7
28.37	13695.7
28.38	13869.1
28.39	14839.9
28.4	14042.5
28.41	14354.5
28.42	14337.2
28.43	14025.1
28.44	13695.7
28.45	14510.5
28.46	14597.2
28.47	13089
28.48	13574.4
28.49	15030.6
28.5	13643.7
28.51	14181.2
28.52	14077.1
28.53	14371.9
28.54	13973.1
28.55	14337.2
28.56	15186.7
28.57	14944
28.58	13938.4
28.59	14458.5
28.6	14527.9
28.61	15273.3
28.62	15602.7
28.63	15186.7
28.64	15238.7
28.65	15221.3
28.66	15342.7
28.67	15325.4
28.68	15152
28.69	16001.5
28.7	16365.5
28.71	16330.9
28.72	16088.2
28.73	16296.2
28.74	17076.3
28.75	16712.3
28.76	17769.8
28.77	18081.8
28.78	18601.9
28.79	18896.6
28.8	19278
28.81	20543.6
28.82	20907.7
28.83	21046.4
28.84	22502.6
28.85	22918.7
28.86	24201.6
28.87	24305.6
28.88	25709.8
28.89	25692.5
28.9	25675.2
28.91	26108.6
28.92	24981.7
28.93	24218.9
28.94	24340.3
28.95	22676
28.96	22606.6
28.97	20630.3
28.98	20058.2
28.99	19468.7
29	18116.5
29.01	18012.5
29.02	16642.9
29.03	16989.6
29.04	15654.7
29.05	16088.2
29.06	15065.3
29.07	14891.9
29.08	14874.6
29.09	14996
29.1	14597.2
29.11	14319.8
29.12	14423.9
29.13	14007.8
29.14	13834.4
29.15	13713.1
29.16	14371.9
29.17	14285.2
29.18	13643.7
29.19	13678.4
29.2	13591.7
29.21	13713.1
29.22	13626.4
29.23	13921.1
29.24	13019.6
29.25	13643.7
29.26	13713.1
29.27	13643.7
29.28	14042.5
29.29	13349
29.3	13730.4
29.31	14233.2
29.32	13730.4
29.33	13661.1
29.34	13574.4
29.35	13539.7
29.36	14059.8
29.37	13591.7
29.38	13487.7
29.39	12759.6
29.4	13366.3
29.41	13383.7
29.42	13418.4
29.43	13834.4
29.44	13401
29.45	12915.6
29.46	13505
29.47	13123.6
29.48	13210.3
29.49	13799.8
29.5	13713.1
29.51	13210.3
29.52	12932.9
29.53	12776.9
29.54	13921.1
29.55	13973.1
29.56	13973.1
29.57	13210.3
29.58	12395.5
29.59	13505
29.6	12863.6
29.61	13834.4
29.62	12707.6
29.63	12638.2
29.64	13349
29.65	13418.4
29.66	13297
29.67	14094.5
29.68	13747.7
29.69	12776.9
29.7	14389.2
29.71	12950.3
29.72	13037
29.73	13799.8
29.74	13903.8
29.75	13765.1
29.76	13349
29.77	12794.2
29.78	13227.7
29.79	13921.1
29.8	13747.7
29.81	13522.4
29.82	12811.6
29.83	13661.1
29.84	13678.4
29.85	13054.3
29.86	13418.4
29.87	13245
29.88	13661.1
29.89	14129.1
29.9	13227.7
29.91	13713.1
29.92	13019.6
29.93	14129.1
29.94	13106.3
29.95	13106.3
29.96	13435.7
29.97	13557
29.98	13262.3
29.99	13453
30	12898.3
30.01	13089
30.02	12482.2
30.03	12915.6
30.04	13054.3
30.05	12516.9
30.06	12967.6
30.07	13747.7
30.08	13799.8
30.09	13713.1
30.1	12880.9
30.11	12828.9
30.12	12724.9
30.13	12828.9
30.14	12794.2
30.15	13141
30.16	13470.4
30.17	13591.7
30.18	13609.1
30.19	13089
30.2	12828.9
30.21	13227.7
30.22	12811.6
30.23	12690.2
30.24	13193
30.25	13505
30.26	13366.3
30.27	13470.4
30.28	11962.1
30.29	12603.5
30.3	13141
30.31	12759.6
30.32	13626.4
30.33	13418.4
30.34	12759.6
30.35	12551.5
30.36	13245
30.37	12187.5
30.38	11892.8
30.39	13071.6
30.4	13349
30.41	13366.3
30.42	13054.3
30.43	13106.3
30.44	13071.6
30.45	12950.3
30.46	12256.8
30.47	12707.6
30.48	13158.3
30.49	12118.1
30.5	13002.3
30.51	13279.7
30.52	12222.1
30.53	12447.5
30.54	12430.2
30.55	12620.9
30.56	12222.1
30.57	12707.6
30.58	13453
30.59	12759.6
30.6	12499.5
30.61	12603.5
30.62	12551.5
30.63	13227.7
30.64	12620.9
30.65	12690.2
30.66	12967.6
30.67	13314.3
30.68	13262.3
30.69	12204.8
30.7	13123.6
30.71	13019.6
30.72	12828.9
30.73	13210.3
30.74	12568.9
30.75	12274.2
30.76	12568.9
30.77	11996.8
30.78	12360.8
30.79	13262.3
30.8	12811.6
30.81	12482.2
30.82	13366.3
30.83	12898.3
30.84	12932.9
30.85	12482.2
30.86	11858.1
30.87	12291.5
30.88	12551.5
30.89	12378.2
30.9	11667.4
30.91	11927.4
30.92	12950.3
30.93	11944.8
30.94	12742.2
30.95	12360.8
30.96	12880.9
30.97	12031.4
30.98	11927.4
30.99	12516.9
31	11702
31.01	11892.8
31.02	12742.2
31.03	13002.3
31.04	12447.5
31.05	12932.9
31.06	12568.9
31.07	12464.9
31.08	12551.5
31.09	12412.8
31.1	12794.2
31.11	12586.2
31.12	12655.6
31.13	12776.9
31.14	11546
31.15	12586.2
31.16	13591.7
31.17	12707.6
31.18	12828.9
31.19	12638.2
31.2	12846.3
31.21	12395.5
31.22	12880.9
31.23	12742.2
31.24	12204.8
31.25	12430.2
31.26	13158.3
31.27	12950.3
31.28	12118.1
31.29	12222.1
31.3	12204.8
31.31	12430.2
31.32	12187.5
31.33	12100.8
31.34	12586.2
31.35	12274.2
31.36	12811.6
31.37	12811.6
31.38	12308.8
31.39	12603.5
31.4	12742.2
31.41	13245
31.42	12655.6
31.43	12482.2
31.44	13054.3
31.45	12759.6
31.46	12967.6
31.47	11979.4
31.48	13019.6
31.49	11788.7
31.5	12152.8
31.51	11719.4
31.52	12655.6
31.53	12776.9
31.54	12655.6
31.55	12690.2
31.56	12412.8
31.57	12568.9
31.58	12828.9
31.59	12655.6
31.6	12204.8
31.61	12031.4
31.62	12707.6
31.63	12655.6
31.64	12100.8
31.65	12724.9
31.66	12707.6
31.67	12984.9
31.68	12742.2
31.69	11892.8
31.7	12794.2
31.71	12724.9
31.72	13002.3
31.73	12464.9
31.74	13297
31.75	12239.5
31.76	13193
31.77	13054.3
31.78	12759.6
31.79	13661.1
31.8	12690.2
31.81	12915.6
31.82	14250.5
31.83	14111.8
31.84	13574.4
31.85	14198.5
31.86	14406.5
31.87	14458.5
31.88	15481.4
31.89	14267.8
31.9	15758.8
31.91	16036.1
31.92	17093.7
31.93	17059
31.94	17215
31.95	17336.4
31.96	18099.2
31.97	19226
31.98	19399.4
31.99	19156.7
32	20248.9
32.01	20682.3
32.02	20456.9
32.03	19988.8
32.04	20266.2
32.05	19867.5
32.06	18567.3
32.07	18099.2
32.08	16989.6
32.09	15741.4
32.1	15880.1
32.11	15689.4
32.12	15100
32.13	14735.9
32.14	13574.4
32.15	13574.4
32.16	13331.7
32.17	13661.1
32.18	13678.4
32.19	13574.4
32.2	12915.6
32.21	12048.8
32.22	11910.1
32.23	12256.8
32.24	12742.2
32.25	12846.3
32.26	11875.4
32.27	13089
32.28	12308.8
32.29	12048.8
32.3	12690.2
32.31	11754.1
32.32	12135.5
32.33	12152.8
32.34	11892.8
32.35	12776.9
32.36	12066.1
32.37	12430.2
32.38	12776.9
32.39	12655.6
32.4	12898.3
32.41	12568.9
32.42	12187.5
32.43	12516.9
32.44	12222.1
32.45	11130
32.46	12100.8
32.47	11840.7
32.48	12118.1
32.49	12707.6
32.5	12568.9
32.51	12222.1
32.52	12222.1
32.53	11892.8
32.54	12291.5
32.55	12828.9
32.56	12308.8
32.57	12100.8
32.58	12066.1
32.59	11650
32.6	11788.7
32.61	12135.5
32.62	12516.9
32.63	12222.1
32.64	12256.8
32.65	11754.1
32.66	12048.8
32.67	12932.9
32.68	13019.6
32.69	12378.2
32.7	12204.8
32.71	12118.1
32.72	13210.3
32.73	12291.5
32.74	12066.1
32.75	12984.9
32.76	13297
32.77	12742.2
32.78	12326.2
32.79	12066.1
32.8	12516.9
32.81	13175.6
32.82	13557
32.83	12828.9
32.84	12360.8
32.85	13037
32.86	12447.5
32.87	13383.7
32.88	13765.1
32.89	13730.4
32.9	13245
32.91	14371.9
32.92	13505
32.93	14025.1
32.94	14441.2
32.95	14146.5
32.96	13903.8
32.97	14319.8
32.98	15186.7
32.99	14510.5
33	14874.6
33.01	14753.3
33.02	14233.2
33.03	14579.9
33.04	13886.4
33.05	14545.2
33.06	14198.5
33.07	13955.8
33.08	13765.1
33.09	14354.5
33.1	15446.7
33.11	14631.9
33.12	14683.9
33.13	15221.3
33.14	15429.4
33.15	15342.7
33.16	16764.3
33.17	16001.5
33.18	17423.1
33.19	16972.3
33.2	17336.4
33.21	20127.5
33.22	20006.2
33.23	21202.4
33.24	22606.6
33.25	23352.1
33.26	24929.7
33.27	27183.4
33.28	29818.6
33.29	30962.8
33.3	32089.6
33.31	34586.1
33.32	35712.9
33.33	37203.9
33.34	38833.5
33.35	41364.6
33.36	41468.6
33.37	40723.1
33.38	40792.5
33.39	39006.8
33.4	35851.6
33.41	33996.6
33.42	33545.9
33.43	30980.1
33.44	29367.8
33.45	28119.6
33.46	25519.1
33.47	23386.8
33.48	23300.1
33.49	20474.3
33.5	19538.1
33.51	17561.7
33.52	16157.5
33.53	14337.2
33.54	14337.2
33.55	13799.8
33.56	14181.2
33.57	14111.8
33.58	13522.4
33.59	13487.7
33.6	12620.9
33.61	12170.1
33.62	12118.1
33.63	13106.3
33.64	12811.6
33.65	12551.5
33.66	12430.2
33.67	11632.7
33.68	12568.9
33.69	12430.2
33.7	12048.8
33.71	12118.1
33.72	12430.2
33.73	12516.9
33.74	12534.2
33.75	11684.7
33.76	11528.7
33.77	11442
33.78	11580.7
33.79	11840.7
33.8	12152.8
33.81	11979.4
33.82	11996.8
33.83	11598
33.84	11494
33.85	11823.4
33.86	11615.4
33.87	12447.5
33.88	12048.8
33.89	12187.5
33.9	11546
33.91	11372.7
33.92	11182
33.93	12204.8
33.94	10956.6
33.95	11546
33.96	12048.8
33.97	12690.2
33.98	11806.1
33.99	11927.4
34	12014.1
34.01	12759.6
34.02	11736.7
34.03	12152.8
34.04	12534.2
34.05	12568.9
34.06	12326.2
34.07	12707.6
34.08	12447.5
34.09	13141
34.1	12638.2
34.11	13505
34.12	13349
34.13	13921.1
34.14	13175.6
34.15	14978.6
34.16	14579.9
34.17	13678.4
34.18	14250.5
34.19	14077.1
34.2	14735.9
34.21	13851.8
34.22	13955.8
34.23	14163.8
34.24	14198.5
34.25	13730.4
34.26	13418.4
34.27	12672.9
34.28	12170.1
34.29	12499.5
34.3	13279.7
34.31	13089
34.32	13401
34.33	13193
34.34	12430.2
34.35	12828.9
34.36	11719.4
34.37	11546
34.38	12430.2
34.39	11494
34.4	11996.8
34.41	11719.4
34.42	11736.7
34.43	11182
34.44	11580.7
34.45	11147.3
34.46	12100.8
34.47	11736.7
34.48	11684.7
34.49	11476.7
34.5	12308.8
34.51	11182
34.52	11355.3
34.53	11130
34.54	11702
34.55	10783.2
34.56	11702
34.57	10765.9
34.58	10887.2
34.59	10904.6
34.6	11407.3
34.61	11823.4
34.62	11979.4
34.63	11702
34.64	11892.8
34.65	12100.8
34.66	12447.5
34.67	13141
34.68	13054.3
34.69	12603.5
34.7	11996.8
34.71	13418.4
34.72	13643.7
34.73	13193
34.74	13470.4
34.75	13834.4
34.76	14458.5
34.77	15654.7
34.78	15238.7
34.79	15533.4
34.8	14181.2
34.81	14805.3
34.82	15412
34.83	15065.3
34.84	14423.9
34.85	14493.2
34.86	13747.7
34.87	13834.4
34.88	13418.4
34.89	13366.3
34.9	13383.7
34.91	12984.9
34.92	12360.8
34.93	12828.9
34.94	12534.2
34.95	12430.2
34.96	11771.4
34.97	11407.3
34.98	11632.7
34.99	11164.6
35	11494
35.01	11615.4
35.02	11650
35.03	11806.1
35.04	11355.3
35.05	10991.3
35.06	10887.2
35.07	10852.6
35.08	11580.7
35.09	11632.7
35.1	11008.6
35.11	10575.2
35.12	11043.3
35.13	11390
35.14	11632.7
35.15	10436.5
35.16	10453.8
35.17	10852.6
35.18	10679.2
35.19	10817.9
35.2	11494
35.21	11251.3
35.22	10696.5
35.23	11771.4
35.24	11650
35.25	11424.7
35.26	11546
35.27	11390
35.28	10921.9
35.29	10852.6
35.3	10869.9
35.31	10887.2
35.32	10800.6
35.33	10540.5
35.34	10748.5
35.35	10939.3
35.36	10107.1
35.37	10419.2
35.38	11580.7
35.39	11650
35.4	10904.6
35.41	10661.9
35.42	10211.1
35.43	11112.6
35.44	11008.6
35.45	10609.9
35.46	11736.7
35.47	10800.6
35.48	11130
35.49	10713.9
35.5	10973.9
35.51	11025.9
35.52	11442
35.53	10765.9
35.54	10141.8
35.55	11147.3
35.56	10297.8
35.57	10991.3
35.58	10679.2
35.59	10644.5
35.6	10315.1
35.61	11511.3
35.62	10471.2
35.63	9968.41
35.64	10696.5
35.65	10748.5
35.66	11164.6
35.67	10592.5
35.68	10852.6
35.69	11251.3
35.7	11286
35.71	11182
35.72	10939.3
35.73	10817.9
35.74	10852.6
35.75	11286
35.76	10419.2
35.77	11025.9
35.78	11251.3
35.79	10661.9
35.8	10731.2
35.81	10297.8
35.82	10661.9
35.83	10765.9
35.84	10748.5
35.85	10349.8
35.86	11164.6
35.87	10679.2
35.88	11632.7
35.89	10713.9
35.9	10419.2
35.91	10973.9
35.92	11303.3
35.93	11910.1
35.94	11234
35.95	11528.7
35.96	11008.6
35.97	10488.5
35.98	11077.9
35.99	11511.3
36	11095.3
36.01	10852.6
36.02	11268.6
36.03	11355.3
36.04	11303.3
36.05	11476.7
36.06	11719.4
36.07	11338
36.08	10835.2
36.09	11771.4
36.1	12135.5
36.11	10921.9
36.12	10557.8
36.13	11511.3
36.14	11580.7
36.15	11771.4
36.16	12066.1
36.17	11580.7
36.18	10887.2
36.19	10609.9
36.2	11823.4
36.21	11424.7
36.22	11632.7
36.23	11407.3
36.24	11459.3
36.25	11910.1
36.26	11754.1
36.27	12048.8
36.28	12014.1
36.29	11892.8
36.3	12915.6
36.31	12672.9
36.32	12950.3
36.33	13054.3
36.34	13123.6
36.35	13175.6
36.36	13522.4
36.37	14042.5
36.38	14250.5
36.39	14493.2
36.4	13817.1
36.41	14389.2
36.42	14735.9
36.43	14493.2
36.44	13973.1
36.45	13747.7
36.46	13331.7
36.47	12932.9
36.48	12880.9
36.49	11944.8
36.5	12620.9
36.51	12776.9
36.52	12828.9
36.53	12430.2
36.54	11182
36.55	11372.7
36.56	10869.9
36.57	10869.9
36.58	11060.6
36.59	10887.2
36.6	11060.6
36.61	11025.9
36.62	11251.3
36.63	10367.1
36.64	10661.9
36.65	10297.8
36.66	10384.5
36.67	11025.9
36.68	11251.3
36.69	10991.3
36.7	11095.3
36.71	10245.8
36.72	10193.8
36.73	10731.2
36.74	11182
36.75	10800.6
36.76	10627.2
36.77	10939.3
36.78	10141.8
36.79	10869.9
36.8	10436.5
36.81	10228.5
36.82	11286
36.83	11511.3
36.84	10384.5
36.85	10887.2
36.86	10939.3
36.87	10939.3
36.88	11251.3
36.89	11320.7
36.9	10939.3
36.91	10800.6
36.92	11043.3
36.93	10141.8
36.94	11130
36.95	11025.9
36.96	11355.3
36.97	10991.3
36.98	10956.6
36.99	11372.7
37	12274.2
37.01	11771.4
37.02	12083.5
37.03	11650
37.04	12638.2
37.05	12395.5
37.06	12846.3
37.07	12984.9
37.08	13089
37.09	14319.8
37.1	13834.4
37.11	14510.5
37.12	14631.9
37.13	14250.5
37.14	14805.3
37.15	14163.8
37.16	15429.4
37.17	14944
37.18	14545.2
37.19	13990.5
37.2	13851.8
37.21	13903.8
37.22	13418.4
37.23	13799.8
37.24	12898.3
37.25	12291.5
37.26	13591.7
37.27	12776.9
37.28	12239.5
37.29	11528.7
37.3	11910.1
37.31	11303.3
37.32	10436.5
37.33	9864.39
37.34	10540.5
37.35	10661.9
37.36	10280.5
37.37	10436.5
37.38	11372.7
37.39	10419.2
37.4	10453.8
37.41	11164.6
37.42	10921.9
37.43	10852.6
37.44	10557.8
37.45	10852.6
37.46	11580.7
37.47	9985.75
37.48	10817.9
37.49	11216.6
37.5	10991.3
37.51	10540.5
37.52	10453.8
37.53	10609.9
37.54	10661.9
37.55	10315.1
37.56	10748.5
37.57	10419.2
37.58	11112.6
37.59	10141.8
37.6	10471.2
37.61	10696.5
37.62	10852.6
37.63	11303.3
37.64	10193.8
37.65	10072.4
37.66	10384.5
37.67	10713.9
37.68	10436.5
37.69	10592.5
37.7	10557.8
37.71	10609.9
37.72	10609.9
37.73	10384.5
37.74	10315.1
37.75	10852.6
37.76	10193.8
37.77	11303.3
37.78	10696.5
37.79	10731.2
37.8	10523.2
37.81	10835.2
37.82	10800.6
37.83	10904.6
37.84	10869.9
37.85	11182
37.86	11979.4
37.87	11979.4
37.88	10973.9
37.89	11528.7
37.9	12100.8
37.91	13037
37.92	12880.9
37.93	11771.4
37.94	13279.7
37.95	13383.7
37.96	14111.8
37.97	14718.6
37.98	15030.6
37.99	13921.1
38	15481.4
38.01	16833.6
38.02	16608.2
38.03	18862
38.04	18411.2
38.05	17440.4
38.06	18844.6
38.07	18844.6
38.08	19486.1
38.09	19919.5
38.1	20734.3
38.11	21826.5
38.12	22381.3
38.13	23664.1
38.14	23594.8
38.15	24600.3
38.16	25328.4
38.17	27322.1
38.18	25467.1
38.19	26992.7
38.2	27062.1
38.21	25605.8
38.22	24652.3
38.23	22970.7
38.24	21705.1
38.25	21462.4
38.26	20612.9
38.27	18445.9
38.28	18931.3
38.29	18775.3
38.3	18844.6
38.31	17561.7
38.32	17475.1
38.33	17561.7
38.34	15984.1
38.35	16001.5
38.36	16313.5
38.37	15412
38.38	13730.4
38.39	14683.9
38.4	15030.6
38.41	15654.7
38.42	15030.6
38.43	14406.5
38.44	14961.3
38.45	15221.3
38.46	14181.2
38.47	14233.2
38.48	13799.8
38.49	14007.8
38.5	13297
38.51	13331.7
38.52	13331.7
38.53	13106.3
38.54	12707.6
38.55	12222.1
38.56	12551.5
38.57	12118.1
38.58	10921.9
38.59	11130
38.6	10627.2
38.61	10817.9
38.62	10107.1
38.63	10627.2
38.64	11632.7
38.65	10748.5
38.66	10245.8
38.67	10141.8
38.68	10713.9
38.69	10280.5
38.7	9621.69
38.71	10401.8
38.72	10540.5
38.73	10263.1
38.74	10869.9
38.75	10540.5
38.76	10869.9
38.77	10228.5
38.78	10679.2
38.79	10349.8
38.8	10228.5
38.81	11268.6
38.82	10384.5
38.83	10731.2
38.84	10453.8
38.85	10956.6
38.86	10835.2
38.87	11216.6
38.88	11650
38.89	11442
38.9	10384.5
38.91	11372.7
38.92	10921.9
38.93	10384.5
38.94	10835.2
38.95	10523.2
38.96	10540.5
38.97	11199.3
38.98	9968.41
38.99	10020.4
39	9847.06
39.01	10852.6
39.02	11355.3
39.03	10661.9
39.04	9968.41
39.05	10765.9
39.06	10159.1
39.07	10523.2
39.08	9569.68
39.09	9951.08
39.1	9465.66
39.11	10124.4
39.12	9829.72
39.13	10384.5
39.14	10280.5
39.15	10141.8
39.16	10679.2
39.17	10055.1
39.18	10037.8
39.19	10453.8
39.2	10349.8
39.21	10193.8
39.22	10159.1
39.23	10159.1
39.24	9413.65
39.25	9604.35
39.26	9795.05
39.27	9968.41
39.28	9933.74
39.29	9777.71
39.3	9673.69
39.31	10020.4
39.32	10107.1
39.33	10072.4
39.34	10315.1
39.35	10817.9
39.36	9933.74
39.37	10072.4
39.38	10713.9
39.39	10471.2
39.4	9829.72
39.41	10003.1
39.42	9673.69
39.43	10089.8
39.44	9916.4
39.45	10297.8
39.46	10245.8
39.47	9881.73
39.48	9673.69
39.49	9899.07
39.5	9535
39.51	9621.69
39.52	10280.5
39.53	9673.69
39.54	9621.69
39.55	9465.66
39.56	9985.75
39.57	9604.35
39.58	9656.36
39.59	9916.4
39.6	10141.8
39.61	9465.66
39.62	9985.75
39.63	10245.8
39.64	9656.36
39.65	9569.68
39.66	8945.57
39.67	9344.3
39.68	9344.3
39.69	10367.1
39.7	9483
39.71	9587.01
39.72	9448.32
39.73	9639.02
39.74	10193.8
39.75	9378.98
39.76	10055.1
39.77	9656.36
39.78	9222.95
39.79	9951.08
39.8	9621.69
39.81	9309.63
39.82	9604.35
39.83	9708.37
39.84	9569.68
39.85	9188.28
39.86	9361.64
39.87	9240.29
39.88	9535
39.89	9881.73
39.9	9257.62
39.91	9430.99
39.92	9465.66
39.93	9101.59
39.94	9326.97
39.95	10367.1
39.96	10349.8
39.97	10193.8
39.98	9847.06
39.99	9639.02
40	9292.29
40.01	9240.29
40.02	10037.8
40.03	9535
40.04	9604.35
40.05	9812.39
40.06	10055.1
40.07	9465.66
40.08	10020.4
40.09	9014.91
40.1	9188.28
40.11	9274.96
40.12	9413.65
40.13	9483
40.14	9292.29
40.15	9691.03
40.16	9691.03
40.17	9222.95
40.18	8858.89
40.19	9604.35
40.2	8893.56
40.21	8841.55
40.22	9153.6
40.23	10003.1
40.24	9673.69
40.25	10037.8
40.26	9205.61
40.27	9673.69
40.28	9274.96
40.29	8789.54
40.3	9743.04
40.31	9691.03
40.32	9136.27
40.33	8876.22
40.34	8633.51
40.35	9014.91
40.36	9205.61
40.37	9257.62
40.38	8945.57
40.39	9500.33
40.4	9621.69
40.41	9708.37
40.42	9847.06
40.43	9101.59
40.44	9014.91
40.45	9639.02
40.46	8945.57
40.47	9170.94
40.48	9430.99
40.49	9465.66
40.5	8477.49
40.51	9240.29
40.52	9309.63
40.53	8928.23
40.54	9257.62
40.55	9985.75
40.56	8876.22
40.57	9639.02
40.58	9032.25
40.59	9604.35
40.6	9847.06
40.61	9118.93
40.62	8928.23
40.63	9847.06
40.64	9743.04
40.65	9604.35
40.66	9326.97
40.67	10089.8
40.68	9465.66
40.69	10089.8
40.7	9968.41
40.71	10037.8
40.72	9743.04
40.73	10765.9
40.74	10505.8
40.75	9257.62
40.76	10072.4
40.77	10107.1
40.78	10124.4
40.79	10453.8
40.8	10107.1
40.81	11199.3
40.82	10887.2
40.83	11546
40.84	11823.4
40.85	11286
40.86	12638.2
40.87	12672.9
40.88	12759.6
40.89	12603.5
40.9	11684.7
40.91	12083.5
40.92	12135.5
40.93	12100.8
40.94	13175.6
40.95	11251.3
40.96	11008.6
40.97	11268.6
40.98	11164.6
40.99	11979.4
41	11806.1
41.01	11910.1
41.02	11095.3
41.03	12187.5
41.04	11199.3
41.05	10783.2
41.06	10748.5
41.07	11511.3
41.08	10661.9
41.09	10869.9
41.1	10679.2
41.11	11060.6
41.12	10453.8
41.13	9500.33
41.14	10089.8
41.15	9968.41
41.16	9084.26
41.17	9829.72
41.18	10783.2
41.19	10020.4
41.2	10228.5
41.21	9691.03
41.22	9170.94
41.23	9170.94
41.24	9656.36
41.25	9985.75
41.26	9430.99
41.27	9985.75
41.28	9899.07
41.29	9829.72
41.3	9448.32
41.31	9604.35
41.32	9812.39
41.33	9274.96
41.34	10661.9
41.35	10453.8
41.36	9430.99
41.37	9465.66
41.38	8962.9
41.39	9378.98
41.4	9396.31
41.41	9257.62
41.42	9222.95
41.43	9101.59
41.44	8945.57
41.45	9483
41.46	9725.7
41.47	9864.39
41.48	9517.67
41.49	10003.1
41.5	9483
41.51	9968.41
41.52	9587.01
41.53	9066.92
41.54	9101.59
41.55	9777.71
41.56	9483
41.57	9743.04
41.58	10644.5
41.59	10401.8
41.6	9621.69
41.61	9691.03
41.62	9500.33
41.63	9448.32
41.64	8668.19
41.65	8269.45
41.66	9951.08
41.67	10089.8
41.68	10072.4
41.69	9743.04
41.7	9101.59
41.71	9812.39
41.72	10297.8
41.73	10072.4
41.74	9777.71
41.75	9829.72
41.76	9413.65
41.77	9413.65
41.78	9153.6
41.79	9014.91
41.8	9032.25
41.81	9361.64
41.82	8425.48
41.83	9708.37
41.84	9413.65
41.85	9743.04
41.86	9257.62
41.87	9292.29
41.88	9430.99
41.89	9361.64
41.9	9656.36
41.91	9084.26
41.92	9361.64
41.93	9795.05
41.94	8824.21
41.95	9829.72
41.96	9066.92
41.97	10211.1
41.98	9326.97
41.99	9118.93
42	9569.68
42.01	8633.51
42.02	9795.05
42.03	9136.27
42.04	10003.1
42.05	9448.32
42.06	9222.95
42.07	9864.39
42.08	9604.35
42.09	8789.54
42.1	9465.66
42.11	9708.37
42.12	9708.37
42.13	9032.25
42.14	9708.37
42.15	9500.33
42.16	9257.62
42.17	9951.08
42.18	9413.65
42.19	9587.01
42.2	9465.66
42.21	9274.96
42.22	9881.73
42.23	9413.65
42.24	9743.04
42.25	10159.1
42.26	9743.04
42.27	9309.63
42.28	9812.39
42.29	9517.67
42.3	9396.31
42.31	10523.2
42.32	10055.1
42.33	10488.5
42.34	10488.5
42.35	10384.5
42.36	11216.6
42.37	10072.4
42.38	10609.9
42.39	10627.2
42.4	10921.9
42.41	10852.6
42.42	11199.3
42.43	11528.7
42.44	10679.2
42.45	11632.7
42.46	10748.5
42.47	10991.3
42.48	11199.3
42.49	10471.2
42.5	10869.9
42.51	10349.8
42.52	9708.37
42.53	10575.2
42.54	10419.2
42.55	10817.9
42.56	11095.3
42.57	10419.2
42.58	10332.5
42.59	9812.39
42.6	9985.75
42.61	9899.07
42.62	9673.69
42.63	10141.8
42.64	9535
42.65	9795.05
42.66	10003.1
42.67	9708.37
42.68	9604.35
42.69	8858.89
42.7	9361.64
42.71	10055.1
42.72	10020.4
42.73	10141.8
42.74	9604.35
42.75	10089.8
42.76	10679.2
42.77	9743.04
42.78	10107.1
42.79	9795.05
42.8	9430.99
42.81	9621.69
42.82	9933.74
42.83	10696.5
42.84	10921.9
42.85	10263.1
42.86	10453.8
42.87	10557.8
42.88	9899.07
42.89	10020.4
42.9	9274.96
42.91	9743.04
42.92	9465.66
42.93	9743.04
42.94	10055.1
42.95	9569.68
42.96	10072.4
42.97	10228.5
42.98	9812.39
42.99	9326.97
43	9881.73
43.01	9864.39
43.02	8425.48
43.03	9725.7
43.04	10003.1
43.05	9829.72
43.06	10089.8
43.07	9916.4
43.08	10245.8
43.09	9604.35
43.1	9153.6
43.11	10089.8
43.12	10627.2
43.13	9656.36
43.14	10349.8
43.15	9430.99
43.16	9535
43.17	9743.04
43.18	9413.65
43.19	9378.98
43.2	10245.8
43.21	10003.1
43.22	9274.96
43.23	9344.3
43.24	9621.69
43.25	9500.33
43.26	9691.03
43.27	9032.25
43.28	9448.32
43.29	9552.34
43.3	9326.97
43.31	8668.19
43.32	9205.61
43.33	8893.56
43.34	8460.15
43.35	8581.5
43.36	9465.66
43.37	8841.55
43.38	8876.22
43.39	9413.65
43.4	8876.22
43.41	8390.8
43.42	8910.89
43.43	8633.51
43.44	8980.24
43.45	9136.27
43.46	9240.29
43.47	9084.26
43.48	9257.62
43.49	9361.64
43.5	9136.27
43.51	9066.92
43.52	8876.22
43.53	8720.19
43.54	8546.83
43.55	8408.14
43.56	8460.15
43.57	8633.51
43.58	8720.19
43.59	8858.89
43.6	8962.9
43.61	9049.58
43.62	8304.12
43.63	8928.23
43.64	9014.91
43.65	8928.23
43.66	8217.44
43.67	8997.58
43.68	8529.49
43.69	8182.77
43.7	9691.03
43.71	9257.62
43.72	8668.19
43.73	8754.87
43.74	8702.86
43.75	8390.8
43.76	8737.53
43.77	9916.4
43.78	9413.65
43.79	9361.64
43.8	8772.2
43.81	9829.72
43.82	9829.72
43.83	9552.34
43.84	9656.36
43.85	9361.64
43.86	9136.27
43.87	10453.8
43.88	10089.8
43.89	9933.74
43.9	10055.1
43.91	10037.8
43.92	10800.6
43.93	10748.5
43.94	11234
43.95	11112.6
43.96	11424.7
43.97	11268.6
43.98	10540.5
43.99	10887.2
44	10921.9
44.01	10731.2
44.02	10748.5
44.03	10401.8
44.04	10609.9
44.05	9795.05
44.06	10471.2
44.07	10332.5
44.08	10817.9
44.09	10211.1
44.1	9951.08
44.11	9587.01
44.12	10471.2
44.13	10315.1
44.14	9344.3
44.15	9326.97
44.16	9517.67
44.17	9448.32
44.18	9101.59
44.19	9136.27
44.2	8997.58
44.21	9448.32
44.22	9344.3
44.23	10020.4
44.24	9344.3
44.25	9448.32
44.26	9864.39
44.27	9725.7
44.28	10176.4
44.29	10315.1
44.3	10817.9
44.31	10869.9
44.32	11043.3
44.33	11043.3
44.34	11736.7
44.35	12222.1
44.36	12187.5
44.37	11840.7
44.38	12256.8
44.39	12880.9
44.4	12291.5
44.41	13071.6
44.42	13453
44.43	14267.8
44.44	14007.8
44.45	13539.7
44.46	13678.4
44.47	14267.8
44.48	12204.8
44.49	12759.6
44.5	12395.5
44.51	11598
44.52	11528.7
44.53	11164.6
44.54	11858.1
44.55	11528.7
44.56	10540.5
44.57	10800.6
44.58	10904.6
44.59	11025.9
44.6	9656.36
44.61	10765.9
44.62	9413.65
44.63	9760.38
44.64	9708.37
44.65	8997.58
44.66	9136.27
44.67	9032.25
44.68	9309.63
44.69	9170.94
44.7	8598.84
44.71	9032.25
44.72	8962.9
44.73	8529.49
44.74	8910.89
44.75	8460.15
44.76	8217.44
44.77	8217.44
44.78	8217.44
44.79	8598.84
44.8	8390.8
44.81	8754.87
44.82	8772.2
44.83	8720.19
44.84	9118.93
44.85	9118.93
44.86	8512.16
44.87	7853.38
44.88	8997.58
44.89	8512.16
44.9	9777.71
44.91	9240.29
44.92	8113.42
44.93	8061.41
44.94	8546.83
44.95	9066.92
44.96	9760.38
44.97	8928.23
44.98	9517.67
44.99	8945.57
45	8824.21
45.01	8754.87
45.02	8893.56
45.03	8737.53
45.04	8980.24
45.05	8789.54
45.06	8806.88
45.07	9899.07
45.08	9118.93
45.09	9257.62
45.1	9656.36
45.11	9084.26
45.12	9240.29
45.13	8841.55
45.14	8962.9
45.15	9500.33
45.16	8928.23
45.17	9153.6
45.18	8824.21
45.19	8980.24
45.2	8546.83
45.21	9222.95
45.22	8962.9
45.23	8650.85
45.24	8564.17
45.25	8876.22
45.26	8789.54
45.27	8442.81
45.28	8408.14
45.29	8737.53
45.3	8148.09
45.31	7749.36
45.32	8685.52
45.33	9448.32
45.34	8685.52
45.35	8460.15
45.36	8806.88
45.37	8616.18
45.38	8061.41
45.39	7940.06
45.4	8096.08
45.41	8772.2
45.42	9170.94
45.43	8078.75
45.44	8616.18
45.45	8581.5
45.46	8702.86
45.47	8442.81
45.48	8685.52
45.49	8390.8
45.5	8789.54
45.51	8304.12
45.52	8356.13
45.53	8200.1
45.54	8512.16
45.55	8460.15
45.56	8668.19
45.57	8425.48
45.58	8252.11
45.59	8824.21
45.6	8304.12
45.61	8321.46
45.62	8564.17
45.63	8148.09
45.64	8564.17
45.65	8321.46
45.66	7523.98
45.67	8096.08
45.68	8286.79
45.69	7454.64
45.7	8356.13
45.71	8130.76
45.72	8408.14
45.73	8616.18
45.74	8546.83
45.75	8581.5
45.76	8598.84
45.77	8581.5
45.78	8078.75
45.79	8252.11
45.8	7662.68
45.81	8304.12
45.82	7558.66
45.83	7437.3
45.84	8182.77
45.85	7957.39
45.86	7888.05
45.87	8564.17
45.88	8668.19
45.89	8252.11
45.9	8078.75
45.91	8529.49
45.92	7922.72
45.93	8304.12
45.94	8096.08
45.95	8356.13
45.96	8009.4
45.97	8200.1
45.98	8130.76
45.99	8165.43
46	7905.38
46.01	8096.08
46.02	8113.42
46.03	8390.8
46.04	7992.07
46.05	7905.38
46.06	8321.46
46.07	8390.8
46.08	7905.38
46.09	8581.5
46.1	7818.7
46.11	7385.29
46.12	7593.33
46.13	8113.42
46.14	7333.28
46.15	7905.38
46.16	8650.85
46.17	8442.81
46.18	8373.47
46.19	7558.66
46.2	7142.58
46.21	8061.41
46.22	8338.79
46.23	8009.4
46.24	8356.13
46.25	8286.79
46.26	7506.65
46.27	8165.43
46.28	8564.17
46.29	7853.38
46.3	7836.04
46.31	8425.48
46.32	8252.11
46.33	7836.04
46.34	8425.48
46.35	8997.58
46.36	8408.14
46.37	8564.17
46.38	7575.99
46.39	8425.48
46.4	8477.49
46.41	8650.85
46.42	7853.38
46.43	8373.47
46.44	8564.17
46.45	8148.09
46.46	9118.93
46.47	8425.48
46.48	8286.79
46.49	9032.25
46.5	8945.57
46.51	8234.78
46.52	8356.13
46.53	8806.88
46.54	7714.69
46.55	7905.38
46.56	7784.03
46.57	8113.42
46.58	8477.49
46.59	8737.53
46.6	8182.77
46.61	8460.15
46.62	8685.52
46.63	7905.38
46.64	8512.16
46.65	8512.16
46.66	8113.42
46.67	8581.5
46.68	8702.86
46.69	8096.08
46.7	8702.86
46.71	8633.51
46.72	8962.9
46.73	9535
46.74	9396.31
46.75	10020.4
46.76	9656.36
46.77	9413.65
46.78	9136.27
46.79	9292.29
46.8	9292.29
46.81	9170.94
46.82	9743.04
46.83	10592.5
46.84	10332.5
46.85	10107.1
46.86	9916.4
46.87	9812.39
46.88	9517.67
46.89	10540.5
46.9	9569.68
46.91	9552.34
46.92	10037.8
46.93	9656.36
46.94	9361.64
46.95	9535
46.96	9118.93
46.97	8720.19
46.98	8685.52
46.99	9136.27
47	8997.58
47.01	8356.13
47.02	9413.65
47.03	8616.18
47.04	8928.23
47.05	8460.15
47.06	8182.77
47.07	8165.43
47.08	8286.79
47.09	9136.27
47.1	8078.75
47.11	8165.43
47.12	8130.76
47.13	8598.84
47.14	8772.2
47.15	8338.79
47.16	8009.4
47.17	8148.09
47.18	8546.83
47.19	8477.49
47.2	8442.81
47.21	7974.73
47.22	8581.5
47.23	7558.66
47.24	8321.46
47.25	8772.2
47.26	8650.85
47.27	9014.91
47.28	9344.3
47.29	9188.28
47.3	9274.96
47.31	9326.97
47.32	9708.37
47.33	10263.1
47.34	9136.27
47.35	8685.52
47.36	8945.57
47.37	9222.95
47.38	9326.97
47.39	9430.99
47.4	8876.22
47.41	9014.91
47.42	8772.2
47.43	8789.54
47.44	9170.94
47.45	9136.27
47.46	8789.54
47.47	9170.94
47.48	9587.01
47.49	8824.21
47.5	8442.81
47.51	8269.45
47.52	8200.1
47.53	8650.85
47.54	8356.13
47.55	8148.09
47.56	8546.83
47.57	8061.41
47.58	7870.71
47.59	8182.77
47.6	8546.83
47.61	8408.14
47.62	8096.08
47.63	8096.08
47.64	8061.41
47.65	7541.32
47.66	8165.43
47.67	8408.14
47.68	8546.83
47.69	8286.79
47.7	7818.7
47.71	7974.73
47.72	8408.14
47.73	8148.09
47.74	7992.07
47.75	7922.72
47.76	7905.38
47.77	8650.85
47.78	9153.6
47.79	8858.89
47.8	7315.95
47.81	8096.08
47.82	8148.09
47.83	8529.49
47.84	8009.4
47.85	8165.43
47.86	8286.79
47.87	7523.98
47.88	7402.63
47.89	8581.5
47.9	8234.78
47.91	8113.42
47.92	8269.45
47.93	7940.06
47.94	8148.09
47.95	7853.38
47.96	8078.75
47.97	8460.15
47.98	8217.44
47.99	8113.42
48	7645.34
48.01	8009.4
48.02	7749.36
48.03	7575.99
48.04	7818.7
48.05	8494.82
48.06	7853.38
48.07	8130.76
48.08	7281.28
48.09	7957.39
48.1	8338.79
48.11	8945.57
48.12	8442.81
48.13	8425.48
48.14	8286.79
48.15	8304.12
48.16	7905.38
48.17	8044.08
48.18	9066.92
48.19	8061.41
48.2	8494.82
48.21	9309.63
48.22	8910.89
48.23	8200.1
48.24	7905.38
48.25	8390.8
48.26	9205.61
48.27	8269.45
48.28	9344.3
48.29	8633.51
48.3	8512.16
48.31	8858.89
48.32	10055.1
48.33	9344.3
48.34	10089.8
48.35	9430.99
48.36	9639.02
48.37	9795.05
48.38	9396.31
48.39	8408.14
48.4	9465.66
48.41	9552.34
48.42	9483
48.43	9153.6
48.44	9448.32
48.45	9257.62
48.46	8772.2
48.47	9448.32
48.48	9344.3
48.49	8945.57
48.5	8980.24
48.51	8841.55
48.52	9309.63
48.53	9205.61
48.54	8130.76
48.55	8373.47
48.56	8477.49
48.57	8338.79
48.58	8910.89
48.59	8668.19
48.6	8980.24
48.61	8044.08
48.62	8269.45
48.63	8026.74
48.64	7471.98
48.65	8234.78
48.66	7784.03
48.67	8113.42
48.68	8512.16
48.69	7974.73
48.7	7957.39
48.71	7766.69
48.72	7575.99
48.73	7714.69
48.74	7749.36
48.75	6917.21
48.76	7836.04
48.77	7367.96
48.78	7680.01
48.79	7489.31
48.8	8044.08
48.81	7680.01
48.82	7402.63
48.83	7437.3
48.84	7385.29
48.85	7628
48.86	8113.42
48.87	7888.05
48.88	7333.28
48.89	7385.29
48.9	7385.29
48.91	6917.21
48.92	7229.27
48.93	7523.98
48.94	7367.96
48.95	7298.61
48.96	7298.61
48.97	7489.31
48.98	7662.68
48.99	7645.34
49	6587.82
49.01	7125.25
49.02	7437.3
49.03	7038.57
49.04	7662.68
49.05	7836.04
49.06	7281.28
49.07	7038.57
49.08	7367.96
49.09	7246.6
49.1	7177.26
49.11	6726.51
49.12	7021.23
49.13	7419.97
49.14	7766.69
49.15	8165.43
49.16	7489.31
49.17	7125.25
49.18	7333.28
49.19	7159.92
49.2	6813.19
49.21	7506.65
49.22	7870.71
49.23	7558.66
49.24	8009.4
49.25	7211.93
49.26	7506.65
49.27	7784.03
49.28	8165.43
49.29	7888.05
49.3	7714.69
49.31	8182.77
49.32	8928.23
49.33	8841.55
49.34	8044.08
49.35	9951.08
49.36	9483
49.37	9760.38
49.38	11060.6
49.39	10263.1
49.4	9656.36
49.41	9136.27
49.42	8460.15
49.43	8512.16
49.44	8893.56
49.45	8581.5
49.46	9032.25
49.47	9084.26
49.48	9396.31
49.49	9413.65
49.5	9032.25
49.51	9205.61
49.52	8581.5
49.53	8598.84
49.54	8928.23
49.55	9084.26
49.56	8529.49
49.57	8130.76
49.58	8321.46
49.59	8304.12
49.6	7853.38
49.61	8286.79
49.62	8356.13
49.63	9170.94
49.64	8824.21
49.65	8685.52
49.66	8494.82
49.67	8754.87
49.68	8061.41
49.69	8442.81
49.7	7870.71
49.71	8373.47
49.72	7801.37
49.73	8113.42
49.74	7992.07
49.75	7992.07
49.76	8148.09
49.77	8078.75
49.78	8373.47
49.79	8650.85
49.8	7853.38
49.81	8321.46
49.82	9032.25
49.83	8546.83
49.84	8858.89
49.85	8442.81
49.86	8702.86
49.87	8789.54
49.88	8529.49
49.89	8702.86
49.9	8650.85
49.91	9118.93
49.92	8061.41
49.93	8390.8
49.94	7628
49.95	8252.11
49.96	9465.66
49.97	9188.28
49.98	8390.8
49.99	8130.76
50	8754.87
50.01	8633.51
50.02	8876.22
50.03	8425.48
50.04	8425.48
50.05	8754.87
50.06	9812.39
50.07	10921.9
50.08	10817.9
50.09	10991.3
50.1	10159.1
50.11	8737.53
50.12	8217.44
50.13	7818.7
50.14	7957.39
50.15	7888.05
50.16	8286.79
50.17	8148.09
50.18	8026.74
50.19	9101.59
50.2	8876.22
50.21	8824.21
50.22	8546.83
50.23	7922.72
50.24	7784.03
50.25	7853.38
50.26	7732.02
50.27	7697.35
50.28	7610.67
50.29	7610.67
50.3	7003.89
50.31	6899.88
50.32	7784.03
50.33	7385.29
50.34	7714.69
50.35	7836.04
50.36	8806.88
50.37	8338.79
50.38	8026.74
50.39	7593.33
50.4	7680.01
50.41	8061.41
50.42	7957.39
50.43	7888.05
50.44	7853.38
50.45	7021.23
50.46	7697.35
50.47	7506.65
50.48	7315.95
50.49	6882.54
50.5	7038.57
50.51	7419.97
50.52	7593.33
50.53	7575.99
50.54	6969.22
50.55	6657.17
50.56	7263.94
50.57	7298.61
50.58	7541.32
50.59	7055.9
50.6	7003.89
50.61	7471.98
50.62	7003.89
50.63	7350.62
50.64	6917.21
50.65	7003.89
50.66	6951.88
50.67	6882.54
50.68	7246.6
50.69	7177.26
50.7	6743.85
50.71	7038.57
50.72	7263.94
50.73	7246.6
50.74	7732.02
50.75	7281.28
50.76	6882.54
50.77	7229.27
50.78	7471.98
50.79	7419.97
50.8	7558.66
50.81	6951.88
50.82	7662.68
50.83	7211.93
50.84	8096.08
50.85	7281.28
50.86	7125.25
50.87	6899.88
50.88	7419.97
50.89	6397.12
50.9	7471.98
50.91	7281.28
50.92	7593.33
50.93	7021.23
50.94	6986.56
50.95	7003.89
50.96	8252.11
50.97	7402.63
50.98	7055.9
50.99	6969.22
51	7107.91
51.01	7107.91
51.02	6951.88
51.03	7714.69
51.04	7940.06
51.05	7766.69
51.06	7437.3
51.07	7471.98
51.08	7107.91
51.09	7870.71
51.1	7090.58
51.11	7836.04
51.12	7575.99
51.13	8234.78
51.14	7367.96
51.15	8061.41
51.16	7905.38
51.17	8512.16
51.18	8980.24
51.19	8564.17
51.2	8442.81
51.21	7957.39
51.22	8252.11
51.23	8633.51
51.24	8997.58
51.25	8442.81
51.26	8148.09
51.27	8460.15
51.28	8373.47
51.29	8737.53
51.3	8078.75
51.31	8702.86
51.32	7957.39
51.33	7836.04
51.34	8113.42
51.35	8182.77
51.36	8009.4
51.37	8512.16
51.38	7836.04
51.39	8529.49
51.4	7749.36
51.41	7766.69
51.42	8269.45
51.43	8217.44
51.44	7714.69
51.45	7714.69
51.46	8269.45
51.47	8009.4
51.48	7645.34
51.49	7229.27
51.5	6709.18
51.51	7211.93
51.52	7281.28
51.53	7090.58
51.54	7506.65
51.55	7454.64
51.56	7784.03
51.57	7506.65
51.58	7350.62
51.59	7333.28
51.6	7298.61
51.61	6865.2
51.62	6570.48
51.63	7367.96
51.64	7350.62
51.65	6865.2
51.66	6761.18
51.67	6449.13
51.68	6310.44
51.69	6743.85
51.7	7229.27
51.71	7107.91
51.72	6466.47
51.73	7073.24
51.74	6639.83
51.75	6379.78
51.76	6743.85
51.77	6067.73
51.78	6501.14
51.79	6882.54
51.8	6709.18
51.81	6605.16
51.82	6865.2
51.83	6483.8
51.84	6431.79
51.85	6033.06
51.86	5929.04
51.87	6795.86
51.88	6258.43
51.89	6986.56
51.9	6050.39
51.91	6102.4
51.92	5859.69
51.93	6778.52
51.94	6154.41
51.95	6414.46
51.96	6275.77
51.97	6258.43
51.98	7003.89
51.99	5946.38
52	6518.48
52.01	6015.72
52.02	6449.13
52.03	5929.04
52.04	6223.76
52.05	6119.74
52.06	5963.71
52.07	6206.42
52.08	6397.12
52.09	6778.52
52.1	7246.6
52.11	6362.45
52.12	6986.56
52.13	7038.57
52.14	6726.51
52.15	6622.49
52.16	6709.18
52.17	6951.88
52.18	6258.43
52.19	6882.54
52.2	6258.43
52.21	6899.88
52.22	7003.89
52.23	6587.82
52.24	6813.19
52.25	7159.92
52.26	6657.17
52.27	6778.52
52.28	6691.84
52.29	6934.55
52.3	6709.18
52.31	6414.46
52.32	6033.06
52.33	6709.18
52.34	6414.46
52.35	6657.17
52.36	6691.84
52.37	6397.12
52.38	6813.19
52.39	6518.48
52.4	6327.78
52.41	5963.71
52.42	6501.14
52.43	6501.14
52.44	6743.85
52.45	6674.5
52.46	6761.18
52.47	6362.45
52.48	6275.77
52.49	6379.78
52.5	6778.52
52.51	5911.7
52.52	6050.39
52.53	5634.32
52.54	5929.04
52.55	6171.75
52.56	6102.4
52.57	5842.36
52.58	5599.65
52.59	6033.06
52.6	6015.72
52.61	6431.79
52.62	5963.71
52.63	6483.8
52.64	6189.08
52.65	5807.68
52.66	5911.7
52.67	5599.65
52.68	6154.41
52.69	6483.8
52.7	5963.71
52.71	5738.34
52.72	6241.09
52.73	6206.42
52.74	5668.99
52.75	6067.73
52.76	5773.01
52.77	6171.75
52.78	6206.42
52.79	6223.76
52.8	5894.37
52.81	5235.58
52.82	5408.95
52.83	5374.27
52.84	5790.35
52.85	5807.68
52.86	5790.35
52.87	5929.04
52.88	5721
52.89	5946.38
52.9	5460.96
52.91	6345.11
52.92	5738.34
52.93	6154.41
52.94	6223.76
52.95	6102.4
52.96	5859.69
52.97	5825.02
52.98	5877.03
52.99	5859.69
53	6067.73
53.01	6414.46
53.02	6137.08
53.03	6085.07
53.04	6067.73
53.05	5877.03
53.06	5287.59
53.07	5911.7
53.08	6085.07
53.09	5790.35
53.1	5807.68
53.11	5686.33
53.12	6258.43
53.13	6483.8
53.14	5599.65
53.15	6067.73
53.16	6102.4
53.17	5929.04
53.18	6015.72
53.19	5929.04
53.2	5686.33
53.21	5981.05
53.22	6258.43
53.23	6067.73
53.24	5807.68
53.25	5755.67
53.26	5911.7
53.27	5790.35
53.28	5721
53.29	6085.07
53.3	6137.08
53.31	6154.41
53.32	5721
53.33	6310.44
53.34	5478.29
53.35	5998.38
53.36	5929.04
53.37	5374.27
53.38	6189.08
53.39	6085.07
53.4	5894.37
53.41	5512.97
53.42	5911.7
53.43	5755.67
53.44	6518.48
53.45	6830.53
53.46	6639.83
53.47	6137.08
53.48	5634.32
53.49	5842.36
53.5	6518.48
53.51	5929.04
53.52	6050.39
53.53	6258.43
53.54	5721
53.55	5443.62
53.56	6518.48
53.57	5859.69
53.58	5530.3
53.59	6206.42
53.6	5877.03
53.61	5495.63
53.62	6189.08
53.63	5929.04
53.64	5668.99
53.65	6223.76
53.66	4836.85
53.67	5495.63
53.68	5963.71
53.69	5825.02
53.7	5547.64
53.71	5408.95
53.72	5842.36
53.73	5651.66
53.74	6033.06
53.75	6241.09
53.76	5530.3
53.77	5651.66
53.78	5530.3
53.79	5634.32
53.8	5374.27
53.81	5495.63
53.82	5703.67
53.83	5668.99
53.84	5287.59
53.85	5929.04
53.86	5651.66
53.87	5998.38
53.88	6310.44
53.89	5218.25
53.9	5616.98
53.91	5616.98
53.92	5790.35
53.93	5981.05
53.94	6189.08
53.95	6327.78
53.96	6015.72
53.97	5842.36
53.98	6015.72
53.99	6085.07
54	6137.08
54.01	6917.21
54.02	6501.14
54.03	6258.43
54.04	6483.8
54.05	6899.88
54.06	6414.46
54.07	6934.55
54.08	7177.26
54.09	6587.82
54.1	7419.97
54.11	6969.22
54.12	7645.34
54.13	7471.98
54.14	7350.62
54.15	7246.6
54.16	7575.99
54.17	7021.23
54.18	7315.95
54.19	7385.29
54.2	6969.22
54.21	7125.25
54.22	6986.56
54.23	7645.34
54.24	6535.81
54.25	7003.89
54.26	6362.45
54.27	6223.76
54.28	6622.49
54.29	6119.74
54.3	6414.46
54.31	6275.77
54.32	6033.06
54.33	5564.98
54.34	5790.35
54.35	6050.39
54.36	6137.08
54.37	5981.05
54.38	5911.7
54.39	5703.67
54.4	5391.61
54.41	5668.99
54.42	6033.06
54.43	5703.67
54.44	5443.62
54.45	5790.35
54.46	5530.3
54.47	5270.26
54.48	5686.33
54.49	5374.27
54.5	5564.98
54.51	5287.59
54.52	5703.67
54.53	5356.94
54.54	5235.58
54.55	5339.6
54.56	4819.51
54.57	5218.25
54.58	4958.2
54.59	5010.21
54.6	5426.28
54.61	5408.95
54.62	5408.95
54.63	5166.24
54.64	5443.62
54.65	4906.19
54.66	5010.21
54.67	5356.94
54.68	5512.97
54.69	5426.28
54.7	5530.3
54.71	5686.33
54.72	5478.29
54.73	5252.92
54.74	5131.57
54.75	5408.95
54.76	5825.02
54.77	5599.65
54.78	5374.27
54.79	5790.35
54.8	5339.6
54.81	5131.57
54.82	5010.21
54.83	5270.26
54.84	5773.01
54.85	5547.64
54.86	4992.87
54.87	5131.57
54.88	5044.88
54.89	4854.18
54.9	4732.83
54.91	4906.19
54.92	5270.26
54.93	5252.92
54.94	5512.97
54.95	4975.54
54.96	5322.27
54.97	5339.6
54.98	5304.93
54.99	5200.91
55	5322.27
55.01	5478.29
55.02	5044.88
55.03	5200.91
55.04	5062.22
55.05	4871.52
55.06	4663.48
55.07	4646.15
55.08	4680.82
55.09	5114.23
55.1	5322.27
55.11	4854.18
55.12	4871.52
55.13	4958.2
55.14	5166.24
55.15	5166.24
55.16	4663.48
55.17	4992.87
55.18	5721
55.19	5044.88
55.2	4732.83
55.21	5911.7
55.22	4854.18
55.23	5426.28
55.24	5304.93
55.25	5096.89
55.26	5634.32
55.27	5495.63
55.28	5807.68
55.29	5790.35
55.3	5530.3
55.31	5495.63
55.32	5356.94
55.33	5460.96
55.34	5460.96
55.35	5755.67
55.36	5530.3
55.37	5495.63
55.38	5738.34
55.39	5807.68
55.4	5079.56
55.41	5339.6
55.42	5270.26
55.43	5564.98
55.44	5859.69
55.45	5686.33
55.46	5408.95
55.47	5044.88
55.48	5443.62
55.49	5478.29
55.5	5478.29
55.51	4992.87
55.52	5218.25
55.53	5252.92
55.54	5252.92
55.55	4940.87
55.56	5616.98
55.57	5478.29
55.58	5131.57
55.59	5252.92
55.6	5079.56
55.61	5512.97
55.62	5738.34
55.63	5582.31
55.64	5391.61
55.65	5270.26
55.66	5460.96
55.67	5668.99
55.68	4992.87
55.69	5495.63
55.7	5599.65
55.71	5721
55.72	5825.02
55.73	5252.92
55.74	4992.87
55.75	5911.7
55.76	5547.64
55.77	5460.96
55.78	5426.28
55.79	5062.22
55.8	5634.32
55.81	5790.35
55.82	5530.3
55.83	5443.62
55.84	5079.56
55.85	5079.56
55.86	5218.25
55.87	5200.91
55.88	5339.6
55.89	5287.59
55.9	5096.89
55.91	5235.58
55.92	4646.15
55.93	5096.89
55.94	5287.59
55.95	4975.54
55.96	5044.88
55.97	4680.82
55.98	4992.87
55.99	4524.79
56	5218.25
56.01	5166.24
56.02	4767.5
56.03	4750.17
56.04	5079.56
56.05	4594.14
56.06	4732.83
56.07	4784.84
56.08	5183.57
56.09	5114.23
56.1	4507.46
56.11	4507.46
56.12	5044.88
56.13	4334.09
56.14	5027.55
56.15	4819.51
56.16	4992.87
56.17	5200.91
56.18	5096.89
56.19	4732.83
56.2	4836.85
56.21	5027.55
56.22	5010.21
56.23	5027.55
56.24	4611.47
56.25	5010.21
56.26	4940.87
56.27	5148.9
56.28	5200.91
56.29	5374.27
56.3	4923.53
56.31	5166.24
56.32	5218.25
56.33	4628.81
56.34	4992.87
56.35	5322.27
56.36	5755.67
56.37	5478.29
56.38	5564.98
56.39	5356.94
56.4	5790.35
56.41	5981.05
56.42	5963.71
56.43	5738.34
56.44	5703.67
56.45	5807.68
56.46	5564.98
56.47	5616.98
56.48	6397.12
56.49	5998.38
56.5	5495.63
56.51	5374.27
56.52	5599.65
56.53	5582.31
56.54	5443.62
56.55	5755.67
56.56	5079.56
56.57	5564.98
56.58	5218.25
56.59	5408.95
56.6	5391.61
56.61	5408.95
56.62	5374.27
56.63	5079.56
56.64	4767.5
56.65	5322.27
56.66	5235.58
56.67	5235.58
56.68	5079.56
56.69	4888.86
56.7	5096.89
56.71	4732.83
56.72	4802.17
56.73	5096.89
56.74	4836.85
56.75	4611.47
56.76	5062.22
56.77	5166.24
56.78	4958.2
56.79	4594.14
56.8	5148.9
56.81	4715.49
56.82	4888.86
56.83	4802.17
56.84	4802.17
56.85	4715.49
56.86	5183.57
56.87	5322.27
56.88	4663.48
56.89	4906.19
56.9	5218.25
56.91	4836.85
56.92	4802.17
56.93	4576.8
56.94	5010.21
56.95	4074.05
56.96	4611.47
56.97	4368.77
56.98	4836.85
56.99	4576.8
57	4750.17
57.01	5200.91
57.02	4836.85
57.03	4819.51
57.04	4958.2
57.05	5270.26
57.06	5062.22
57.07	4646.15
57.08	4784.84
57.09	5079.56
57.1	4646.15
57.11	4264.75
57.12	4732.83
57.13	5322.27
57.14	5703.67
57.15	4715.49
57.16	4646.15
57.17	4628.81
57.18	4507.46
57.19	4576.8
57.2	4680.82
57.21	5131.57
57.22	4663.48
57.23	4906.19
57.24	5114.23
57.25	4368.77
57.26	4178.07
57.27	4836.85
57.28	4490.12
57.29	4888.86
57.3	4316.76
57.31	4490.12
57.32	5027.55
57.33	4663.48
57.34	4871.52
57.35	5010.21
57.36	5010.21
57.37	4611.47
57.38	5027.55
57.39	4732.83
57.4	4871.52
57.41	5131.57
57.42	5044.88
57.43	4784.84
57.44	4680.82
57.45	5044.88
57.46	5148.9
57.47	4784.84
57.48	4680.82
57.49	5044.88
57.5	5079.56
57.51	5235.58
57.52	5339.6
57.53	4663.48
57.54	5183.57
57.55	4715.49
57.56	5443.62
57.57	5287.59
57.58	4611.47
57.59	4906.19
57.6	5010.21
57.61	5027.55
57.62	4888.86
57.63	4888.86
57.64	4732.83
57.65	4819.51
57.66	4992.87
57.67	4940.87
57.68	4611.47
57.69	4507.46
57.7	4282.08
57.71	4628.81
57.72	4819.51
57.73	4923.53
57.74	4524.79
57.75	4576.8
57.76	4975.54
57.77	4368.77
57.78	5287.59
57.79	4316.76
57.8	4438.11
57.81	5027.55
57.82	4646.15
57.83	4386.1
57.84	4646.15
57.85	4334.09
57.86	4490.12
57.87	4420.77
57.88	4438.11
57.89	4611.47
57.9	4732.83
57.91	4646.15
57.92	4542.13
57.93	4143.39
57.94	4698.16
57.95	4507.46
57.96	4559.47
57.97	4160.73
57.98	4646.15
57.99	4351.43
58	4299.42
58.01	4420.77
58.02	4628.81
58.03	4472.78
58.04	4732.83
58.05	4195.4
58.06	4698.16
58.07	4403.44
58.08	4646.15
58.09	4542.13
58.1	4403.44
58.11	4524.79
58.12	4490.12
58.13	4784.84
58.14	4438.11
58.15	4611.47
58.16	4698.16
58.17	5027.55
58.18	4420.77
58.19	4282.08
58.2	4455.45
58.21	4524.79
58.22	4750.17
58.23	4126.06
58.24	4559.47
58.25	4507.46
58.26	4299.42
58.27	4230.07
58.28	4663.48
58.29	4680.82
58.3	4836.85
58.31	4524.79
58.32	4334.09
58.33	4056.71
58.34	4646.15
58.35	5079.56
58.36	4559.47
58.37	4698.16
58.38	5148.9
58.39	5096.89
58.4	4784.84
58.41	4906.19
58.42	5079.56
58.43	4906.19
58.44	4923.53
58.45	4698.16
58.46	4802.17
58.47	4958.2
58.48	5235.58
58.49	4784.84
58.5	4698.16
58.51	4507.46
58.52	4836.85
58.53	4715.49
58.54	4680.82
58.55	4576.8
58.56	5356.94
58.57	4715.49
58.58	4455.45
58.59	4784.84
58.6	4542.13
58.61	4316.76
58.62	4455.45
58.63	4403.44
58.64	5096.89
58.65	5166.24
58.66	4940.87
58.67	4438.11
58.68	4507.46
58.69	4611.47
58.7	5010.21
58.71	4975.54
58.72	4316.76
58.73	4316.76
58.74	4715.49
58.75	4698.16
58.76	5010.21
58.77	4334.09
58.78	4594.14
58.79	4646.15
58.8	4403.44
58.81	4299.42
58.82	4178.07
58.83	4576.8
58.84	4975.54
58.85	4975.54
58.86	4559.47
58.87	4559.47
58.88	4663.48
58.89	4195.4
58.9	4490.12
58.91	4559.47
58.92	4628.81
58.93	4750.17
58.94	4680.82
58.95	4958.2
58.96	4594.14
58.97	4542.13
58.98	4559.47
58.99	4507.46
59	4732.83
59.01	4524.79
59.02	4247.41
59.03	4334.09
59.04	4160.73
59.05	4507.46
59.06	4698.16
59.07	4403.44
59.08	4386.1
59.09	4160.73
59.1	4472.78
59.11	4386.1
59.12	4334.09
59.13	4160.73
59.14	4455.45
59.15	4212.74
59.16	4576.8
59.17	3987.37
59.18	4316.76
59.19	3970.03
59.2	4455.45
59.21	4195.4
59.22	4420.77
59.23	4004.7
59.24	4698.16
59.25	4576.8
59.26	4143.39
59.27	3900.68
59.28	4455.45
59.29	4386.1
59.3	4680.82
59.31	4420.77
59.32	4438.11
59.33	4871.52
59.34	4386.1
59.35	4091.38
59.36	4420.77
59.37	4420.77
59.38	3883.35
59.39	4126.06
59.4	4403.44
59.41	4403.44
59.42	4472.78
59.43	4386.1
59.44	3952.69
59.45	4282.08
59.46	4438.11
59.47	4160.73
59.48	4871.52
59.49	4715.49
59.5	4368.77
59.51	4230.07
59.52	4247.41
59.53	4178.07
59.54	4230.07
59.55	4732.83
59.56	4490.12
59.57	4455.45
59.58	4403.44
59.59	4663.48
59.6	4750.17
59.61	4698.16
59.62	4854.18
59.63	5010.21
59.64	4663.48
59.65	4230.07
59.66	4732.83
59.67	4732.83
59.68	4784.84
59.69	5096.89
59.7	4698.16
59.71	4958.2
59.72	5166.24
59.73	4906.19
59.74	5356.94
59.75	5460.96
59.76	5131.57
59.77	5200.91
59.78	5460.96
59.79	5478.29
59.8	5512.97
59.81	5460.96
59.82	5703.67
59.83	5929.04
59.84	6015.72
59.85	5825.02
59.86	5668.99
59.87	5877.03
59.88	6050.39
59.89	5998.38
59.9	6137.08
59.91	5877.03
59.92	5773.01
59.93	5356.94
59.94	5096.89
59.95	5755.67
59.96	4923.53
59.97	5738.34
59.98	5443.62
59.99	5218.25
60	5651.66
60.01	5356.94
60.02	4784.84
60.03	5183.57
60.04	4958.2
60.05	5044.88
60.06	4767.5
60.07	4698.16
60.08	5252.92
60.09	5530.3
60.1	4784.84
60.11	4524.79
60.12	4403.44
60.13	4888.86
60.14	4178.07
60.15	4334.09
60.16	4507.46
60.17	4819.51
60.18	4836.85
60.19	4698.16
60.2	4264.75
60.21	4403.44
60.22	4507.46
60.23	3761.99
60.24	4264.75
60.25	4316.76
60.26	4368.77
60.27	4386.1
60.28	4178.07
60.29	4871.52
60.3	3848.67
60.31	3866.01
60.32	4264.75
60.33	4438.11
60.34	4455.45
60.35	4299.42
60.36	3883.35
60.37	4160.73
60.38	3970.03
60.39	4351.43
60.4	3692.65
60.41	4420.77
60.42	4230.07
60.43	4472.78
60.44	4646.15
60.45	4455.45
60.46	4576.8
60.47	4195.4
60.48	4126.06
60.49	4282.08
60.5	4576.8
60.51	3866.01
60.52	4056.71
60.53	4195.4
60.54	3796.67
60.55	4143.39
60.56	4143.39
60.57	4195.4
60.58	4143.39
60.59	4074.05
60.6	4351.43
60.61	4004.7
60.62	4143.39
60.63	4039.37
60.64	3848.67
60.65	4195.4
60.66	4074.05
60.67	4455.45
60.68	4282.08
60.69	3831.34
60.7	4108.72
60.71	4004.7
60.72	4871.52
60.73	3900.68
60.74	3571.29
60.75	4108.72
60.76	4368.77
60.77	4438.11
60.78	3761.99
60.79	4316.76
60.8	4108.72
60.81	4472.78
60.82	3727.32
60.83	3952.69
60.84	3779.33
60.85	4282.08
60.86	4420.77
60.87	3900.68
60.88	3848.67
60.89	4542.13
60.9	4212.74
60.91	3866.01
60.92	4334.09
60.93	4143.39
60.94	4230.07
60.95	4351.43
60.96	4334.09
60.97	4195.4
60.98	4091.38
60.99	4056.71
61	3970.03
61.01	3866.01
61.02	4455.45
61.03	4611.47
61.04	3814
61.05	4472.78
61.06	4559.47
61.07	4819.51
61.08	4698.16
61.09	4490.12
61.1	4732.83
61.11	4594.14
61.12	4680.82
61.13	4940.87
61.14	5062.22
61.15	4559.47
61.16	4819.51
61.17	4559.47
61.18	4507.46
61.19	4282.08
61.2	4386.1
61.21	4403.44
61.22	4784.84
61.23	5027.55
61.24	4767.5
61.25	4507.46
61.26	4715.49
61.27	4992.87
61.28	4819.51
61.29	5131.57
61.3	5027.55
61.31	4836.85
61.32	4906.19
61.33	4992.87
61.34	4940.87
61.35	4368.77
61.36	4680.82
61.37	5027.55
61.38	4646.15
61.39	4784.84
61.4	4455.45
61.41	4524.79
61.42	4542.13
61.43	4542.13
61.44	4403.44
61.45	4160.73
61.46	3814
61.47	4091.38
61.48	4576.8
61.49	4594.14
61.5	4958.2
61.51	4576.8
61.52	3935.36
61.53	4247.41
61.54	4420.77
61.55	4854.18
61.56	4160.73
61.57	4386.1
61.58	3987.37
61.59	3814
61.6	4455.45
61.61	4438.11
61.62	4316.76
61.63	4230.07
61.64	4368.77
61.65	4126.06
61.66	3709.98
61.67	4160.73
61.68	4004.7
61.69	3779.33
61.7	4074.05
61.71	4160.73
61.72	4108.72
61.73	4056.71
61.74	4022.04
61.75	3692.65
61.76	4680.82
61.77	4247.41
61.78	3727.32
61.79	4126.06
61.8	3796.67
61.81	4195.4
61.82	4403.44
61.83	4316.76
61.84	4195.4
61.85	3900.68
61.86	4143.39
61.87	4351.43
61.88	4230.07
61.89	4108.72
61.9	4143.39
61.91	3987.37
61.92	4091.38
61.93	3657.97
61.94	3744.66
61.95	4004.7
61.96	4108.72
61.97	3987.37
61.98	4143.39
61.99	4091.38
62	4195.4
62.01	4334.09
62.02	4022.04
62.03	4195.4
62.04	4282.08
62.05	4316.76
62.06	4108.72
62.07	3952.69
62.08	3692.65
62.09	3709.98
62.1	3623.3
62.11	3883.35
62.12	3744.66
62.13	4195.4
62.14	3779.33
62.15	3553.96
62.16	4160.73
62.17	4334.09
62.18	3918.02
62.19	3814
62.2	4004.7
62.21	3796.67
62.22	4022.04
62.23	3692.65
62.24	4178.07
62.25	3848.67
62.26	4368.77
62.27	4178.07
62.28	3987.37
62.29	4628.81
62.3	4126.06
62.31	4646.15
62.32	4074.05
62.33	3918.02
62.34	4282.08
62.35	4524.79
62.36	3883.35
62.37	4420.77
62.38	4368.77
62.39	4212.74
62.4	4455.45
62.41	4039.37
62.42	4628.81
62.43	4299.42
62.44	4282.08
62.45	4108.72
62.46	4403.44
62.47	3952.69
62.48	4247.41
62.49	4576.8
62.5	4264.75
62.51	4386.1
62.52	4230.07
62.53	4195.4
62.54	4316.76
62.55	4576.8
62.56	4126.06
62.57	4490.12
62.58	4264.75
62.59	4403.44
62.6	3952.69
62.61	3952.69
62.62	4004.7
62.63	3935.36
62.64	4091.38
62.65	4282.08
62.66	3970.03
62.67	4004.7
62.68	4143.39
62.69	4386.1
62.7	4351.43
62.71	3935.36
62.72	3883.35
62.73	3536.62
62.74	3987.37
62.75	3883.35
62.76	3501.95
62.77	3536.62
62.78	4160.73
62.79	3970.03
62.8	3623.3
62.81	3709.98
62.82	3970.03
62.83	3866.01
62.84	3796.67
62.85	3970.03
62.86	3900.68
62.87	4091.38
62.88	4108.72
62.89	3814
62.9	3744.66
62.91	3536.62
62.92	3952.69
62.93	3814
62.94	4022.04
62.95	4091.38
62.96	3709.98
62.97	3952.69
62.98	3987.37
62.99	4074.05
63	3900.68
63.01	3883.35
63.02	3779.33
63.03	3952.69
63.04	3952.69
63.05	3761.99
63.06	3259.24
63.07	3328.58
63.08	3796.67
63.09	3848.67
63.1	3883.35
63.11	3987.37
63.12	3605.97
63.13	3970.03
63.14	4091.38
63.15	3553.96
63.16	3900.68
63.17	3744.66
63.18	4524.79
63.19	3970.03
63.2	3952.69
63.21	3605.97
63.22	4022.04
63.23	3848.67
63.24	3935.36
63.25	3918.02
63.26	4022.04
63.27	4282.08
63.28	4212.74
63.29	4299.42
63.3	3831.34
63.31	3814
63.32	4594.14
63.33	3588.63
63.34	4160.73
63.35	4403.44
63.36	4022.04
63.37	4455.45
63.38	3900.68
63.39	3952.69
63.4	4022.04
63.41	3935.36
63.42	4403.44
63.43	3709.98
63.44	3588.63
63.45	4282.08
63.46	3657.97
63.47	4316.76
63.48	3935.36
63.49	3848.67
63.5	4108.72
63.51	3657.97
63.52	4108.72
63.53	4143.39
63.54	4230.07
63.55	3640.64
63.56	4004.7
63.57	3831.34
63.58	4195.4
63.59	3935.36
63.6	3675.31
63.61	3675.31
63.62	3900.68
63.63	4680.82
63.64	3796.67
63.65	3571.29
63.66	3935.36
63.67	3467.27
63.68	3900.68
63.69	3605.97
63.7	3935.36
63.71	3866.01
63.72	3866.01
63.73	3970.03
63.74	3900.68
63.75	3952.69
63.76	3623.3
63.77	3536.62
63.78	3553.96
63.79	3501.95
63.8	4074.05
63.81	3605.97
63.82	3553.96
63.83	4351.43
63.84	3640.64
63.85	3692.65
63.86	3640.64
63.87	4334.09
63.88	3814
63.89	3484.61
63.9	4195.4
63.91	3935.36
63.92	3970.03
63.93	3623.3
63.94	3605.97
63.95	4663.48
63.96	4056.71
63.97	4299.42
63.98	3935.36
63.99	3987.37
64	3761.99
64.01	4368.77
64.02	4438.11
64.03	4524.79
64.04	3952.69
64.05	4056.71
64.06	4264.75
64.07	4178.07
64.08	3675.31
64.09	3796.67
64.1	3883.35
64.11	4386.1
64.12	4091.38
64.13	4022.04
64.14	3848.67
64.15	3952.69
64.16	4056.71
64.17	4039.37
64.18	4403.44
64.19	4022.04
64.2	4282.08
64.21	3918.02
64.22	3900.68
64.23	3987.37
64.24	3484.61
64.25	3553.96
64.26	4403.44
64.27	4074.05
64.28	3952.69
64.29	3779.33
64.3	4195.4
64.31	3449.94
64.32	4143.39
64.33	3987.37
64.34	3866.01
64.35	4022.04
64.36	3779.33
64.37	3605.97
64.38	3900.68
64.39	4888.86
64.4	4334.09
64.41	4022.04
64.42	3831.34
64.43	4282.08
64.44	3848.67
64.45	3796.67
64.46	4126.06
64.47	3831.34
64.48	4004.7
64.49	4368.77
64.5	3883.35
64.51	3918.02
64.52	4004.7
64.53	4004.7
64.54	4472.78
64.55	4299.42
64.56	4091.38
64.57	4594.14
64.58	4195.4
64.59	4611.47
64.6	4316.76
64.61	4091.38
64.62	4646.15
64.63	4386.1
64.64	4542.13
64.65	4160.73
64.66	4195.4
64.67	4750.17
64.68	4420.77
64.69	4022.04
64.7	4455.45
64.71	4438.11
64.72	4542.13
64.73	4802.17
64.74	4524.79
64.75	4472.78
64.76	4663.48
64.77	4490.12
64.78	4438.11
64.79	4750.17
64.8	4299.42
64.81	3900.68
64.82	4074.05
64.83	4455.45
64.84	4091.38
64.85	4299.42
64.86	4420.77
64.87	4542.13
64.88	4507.46
64.89	4542.13
64.9	4282.08
64.91	4507.46
64.92	4108.72
64.93	4091.38
64.94	4403.44
64.95	4160.73
64.96	4386.1
64.97	4056.71
64.98	4264.75
64.99	4680.82
65	4299.42
65.01	3900.68
65.02	4143.39
65.03	3935.36
65.04	3553.96
65.05	4403.44
65.06	4368.77
65.07	3640.64
65.08	4004.7
65.09	3744.66
65.1	3900.68
65.11	4004.7
65.12	3796.67
65.13	3952.69
65.14	3623.3
65.15	4160.73
65.16	4230.07
65.17	4108.72
65.18	3657.97
65.19	3918.02
65.2	4143.39
65.21	3918.02
65.22	4178.07
65.23	4316.76
65.24	3814
65.25	4004.7
65.26	4178.07
65.27	3952.69
65.28	4698.16
65.29	4160.73
65.3	3814
65.31	3918.02
65.32	4455.45
65.33	4680.82
65.34	4212.74
65.35	4767.5
65.36	4784.84
65.37	4559.47
65.38	4247.41
65.39	4663.48
65.4	4628.81
65.41	4819.51
65.42	4732.83
65.43	4663.48
65.44	5131.57
65.45	5027.55
65.46	5010.21
65.47	4611.47
65.48	5079.56
65.49	4958.2
65.5	4992.87
65.51	4663.48
65.52	4784.84
65.53	4871.52
65.54	4108.72
65.55	4854.18
65.56	4455.45
65.57	4507.46
65.58	4316.76
65.59	4680.82
65.6	4403.44
65.61	4126.06
65.62	4455.45
65.63	4542.13
65.64	4160.73
65.65	3952.69
65.66	4004.7
65.67	4282.08
65.68	4178.07
65.69	3761.99
65.7	4004.7
65.71	4403.44
65.72	4143.39
65.73	4143.39
65.74	3935.36
65.75	4039.37
65.76	3935.36
65.77	4091.38
65.78	3900.68
65.79	4212.74
65.8	3935.36
65.81	3675.31
65.82	3727.32
65.83	4178.07
65.84	3900.68
65.85	4212.74
65.86	4299.42
65.87	3918.02
65.88	4663.48
65.89	4576.8
65.9	4195.4
65.91	4559.47
65.92	4178.07
65.93	4316.76
65.94	3831.34
65.95	4403.44
65.96	4195.4
65.97	4403.44
65.98	4143.39
65.99	3935.36
66	4160.73
66.01	4299.42
66.02	4715.49
66.03	4299.42
66.04	4542.13
66.05	4074.05
66.06	4403.44
66.07	4368.77
66.08	3987.37
66.09	4559.47
66.1	4420.77
66.11	4750.17
66.12	3779.33
66.13	3657.97
66.14	4022.04
66.15	3900.68
66.16	4004.7
66.17	4195.4
66.18	4403.44
66.19	3744.66
66.2	3883.35
66.21	3987.37
66.22	3935.36
66.23	3761.99
66.24	3935.36
66.25	3571.29
66.26	3779.33
66.27	3987.37
66.28	3605.97
66.29	3935.36
66.3	4264.75
66.31	3588.63
66.32	3675.31
66.33	3970.03
66.34	3727.32
66.35	4022.04
66.36	3553.96
66.37	3935.36
66.38	3657.97
66.39	3883.35
66.4	3727.32
66.41	4178.07
66.42	3692.65
66.43	3640.64
66.44	3380.59
66.45	4143.39
66.46	3657.97
66.47	4022.04
66.48	3467.27
66.49	3588.63
66.5	3657.97
66.51	3536.62
66.52	3605.97
66.53	3918.02
66.54	3623.3
66.55	3363.26
66.56	3900.68
66.57	3987.37
66.58	4056.71
66.59	3744.66
66.6	3779.33
66.61	4282.08
66.62	3657.97
66.63	3657.97
66.64	3744.66
66.65	3640.64
66.66	3779.33
66.67	4212.74
66.68	3467.27
66.69	3449.94
66.7	3259.24
66.71	3519.28
66.72	3900.68
66.73	3814
66.74	4316.76
66.75	3866.01
66.76	3519.28
66.77	3779.33
66.78	3744.66
66.79	3761.99
66.8	3779.33
66.81	3779.33
66.82	4022.04
66.83	3605.97
66.84	3553.96
66.85	3623.3
66.86	3432.6
66.87	3900.68
66.88	4143.39
66.89	4126.06
66.9	3814
66.91	4386.1
66.92	3900.68
66.93	3848.67
66.94	3918.02
66.95	3605.97
66.96	3970.03
66.97	4160.73
66.98	4004.7
66.99	3987.37
67	3796.67
67.01	4282.08
67.02	4039.37
67.03	3779.33
67.04	4160.73
67.05	4143.39
67.06	3935.36
67.07	3796.67
67.08	3935.36
67.09	4212.74
67.1	3831.34
67.11	3935.36
67.12	3744.66
67.13	4230.07
67.14	3519.28
67.15	4230.07
67.16	3831.34
67.17	4056.71
67.18	3709.98
67.19	3831.34
67.2	3640.64
67.21	4143.39
67.22	3866.01
67.23	3640.64
67.24	4126.06
67.25	3952.69
67.26	3519.28
67.27	3935.36
67.28	3571.29
67.29	3883.35
67.3	3571.29
67.31	3657.97
67.32	3640.64
67.33	3293.91
67.34	3519.28
67.35	3935.36
67.36	3484.61
67.37	3536.62
67.38	3553.96
67.39	4004.7
67.4	3571.29
67.41	3623.3
67.42	4126.06
67.43	3380.59
67.44	3779.33
67.45	4195.4
67.46	3848.67
67.47	4230.07
67.48	3744.66
67.49	4143.39
67.5	3640.64
67.51	3657.97
67.52	3796.67
67.53	3900.68
67.54	3675.31
67.55	4126.06
67.56	3970.03
67.57	3623.3
67.58	4039.37
67.59	4074.05
67.6	3571.29
67.61	3866.01
67.62	3796.67
67.63	3779.33
67.64	3831.34
67.65	3987.37
67.66	3553.96
67.67	3970.03
67.68	3918.02
67.69	3866.01
67.7	4074.05
67.71	3640.64
67.72	3935.36
67.73	3935.36
67.74	4126.06
67.75	3883.35
67.76	4160.73
67.77	3831.34
67.78	3623.3
67.79	3380.59
67.8	3571.29
67.81	4091.38
67.82	3883.35
67.83	4091.38
67.84	3935.36
67.85	3692.65
67.86	3814
67.87	4074.05
67.88	3831.34
67.89	3137.88
67.9	3623.3
67.91	3675.31
67.92	3415.26
67.93	3814
67.94	3779.33
67.95	3137.88
67.96	3207.23
67.97	3605.97
67.98	3623.3
67.99	3605.97
68	3952.69
68.01	3553.96
68.02	3605.97
68.03	3727.32
68.04	3311.25
68.05	3588.63
68.06	3727.32
68.07	3709.98
68.08	3623.3
68.09	3415.26
68.1	3311.25
68.11	3484.61
68.12	3397.93
68.13	3380.59
68.14	3311.25
68.15	3814
68.16	3363.26
68.17	3588.63
68.18	3987.37
68.19	3553.96
68.2	3744.66
68.21	4039.37
68.22	3588.63
68.23	3623.3
68.24	3727.32
68.25	3623.3
68.26	4056.71
68.27	3692.65
68.28	3276.57
68.29	3692.65
68.3	3657.97
68.31	3519.28
68.32	3883.35
68.33	4022.04
68.34	3761.99
68.35	3432.6
68.36	3779.33
68.37	3467.27
68.38	3727.32
68.39	3623.3
68.4	3692.65
68.41	3727.32
68.42	3866.01
68.43	3605.97
68.44	3588.63
68.45	3397.93
68.46	3640.64
68.47	3189.89
68.48	3553.96
68.49	3467.27
68.5	3519.28
68.51	3883.35
68.52	3796.67
68.53	3744.66
68.54	3605.97
68.55	3779.33
68.56	3189.89
68.57	3640.64
68.58	3935.36
68.59	3640.64
68.6	3640.64
68.61	3727.32
68.62	3779.33
68.63	4004.7
68.64	3588.63
68.65	3761.99
68.66	3883.35
68.67	3952.69
68.68	3866.01
68.69	3692.65
68.7	3970.03
68.71	4143.39
68.72	4732.83
68.73	3727.32
68.74	3605.97
68.75	3605.97
68.76	4039.37
68.77	4334.09
68.78	4004.7
68.79	4091.38
68.8	3918.02
68.81	4299.42
68.82	3814
68.83	3952.69
68.84	4126.06
68.85	3814
68.86	3397.93
68.87	3293.91
68.88	3831.34
68.89	4004.7
68.9	4160.73
68.91	3814
68.92	4126.06
68.93	3900.68
68.94	3866.01
68.95	3848.67
68.96	4143.39
68.97	4091.38
68.98	3761.99
68.99	3935.36
69	4004.7
69.01	3276.57
69.02	3883.35
69.03	4022.04
69.04	4178.07
69.05	3484.61
69.06	3761.99
69.07	3692.65
69.08	3952.69
69.09	3467.27
69.1	3814
69.11	3918.02
69.12	3657.97
69.13	3449.94
69.14	3935.36
69.15	4160.73
69.16	3883.35
69.17	3987.37
69.18	3796.67
69.19	3467.27
69.2	3918.02
69.21	3987.37
69.22	3571.29
69.23	3779.33
69.24	3605.97
69.25	3727.32
69.26	3259.24
69.27	3761.99
69.28	3831.34
69.29	3761.99
69.3	3761.99
69.31	3623.3
69.32	3814
69.33	3501.95
69.34	4004.7
69.35	3432.6
69.36	3623.3
69.37	3553.96
69.38	3605.97
69.39	3415.26
69.4	3900.68
69.41	3519.28
69.42	3727.32
69.43	3345.92
69.44	3380.59
69.45	3987.37
69.46	3484.61
69.47	3224.56
69.48	3311.25
69.49	3484.61
69.5	3883.35
69.51	3744.66
69.52	3831.34
69.53	3241.9
69.54	3345.92
69.55	3449.94
69.56	3831.34
69.57	3588.63
69.58	3623.3
69.59	3623.3
69.6	3311.25
69.61	3536.62
69.62	3588.63
69.63	3241.9
69.64	3328.58
69.65	3848.67
69.66	3449.94
69.67	3311.25
69.68	3085.87
69.69	3571.29
69.7	3259.24
69.71	3328.58
69.72	3345.92
69.73	3623.3
69.74	3536.62
69.75	3553.96
69.76	3692.65
69.77	3259.24
69.78	3415.26
69.79	3553.96
69.8	3848.67
69.81	3588.63
69.82	3397.93
69.83	3172.56
69.84	3259.24
69.85	3640.64
69.86	3588.63
69.87	2999.19
69.88	3883.35
69.89	3380.59
69.9	3432.6
69.91	3449.94
69.92	3432.6
69.93	3380.59
69.94	3415.26
69.95	3345.92
69.96	3311.25
69.97	3432.6
69.98	3571.29
69.99	3207.23
70	3588.63
70.01	3137.88
70.02	3328.58
70.03	3605.97
70.04	3501.95
70.05	3449.94
70.06	3796.67
70.07	3588.63
70.08	3623.3
70.09	3397.93
70.1	3519.28
70.11	3345.92
70.12	3172.56
70.13	3814
70.14	3397.93
70.15	3345.92
70.16	3918.02
70.17	3553.96
70.18	3709.98
70.19	3345.92
70.2	3519.28
70.21	3588.63
70.22	3415.26
70.23	3415.26
70.24	3311.25
70.25	3814
70.26	3328.58
70.27	3276.57
70.28	3467.27
70.29	3675.31
70.3	3571.29
70.31	3293.91
70.32	3692.65
70.33	3397.93
70.34	3120.55
70.35	3085.87
70.36	3311.25
70.37	3501.95
70.38	3779.33
70.39	3311.25
70.4	3848.67
70.41	3467.27
70.42	3779.33
70.43	3415.26
70.44	3397.93
70.45	3103.21
70.46	3761.99
70.47	3449.94
70.48	3605.97
70.49	3276.57
70.5	3085.87
70.51	3640.64
70.52	3744.66
70.53	3259.24
70.54	3276.57
70.55	2964.52
70.56	2964.52
70.57	3623.3
70.58	3224.56
70.59	3657.97
70.6	3345.92
70.61	3727.32
70.62	3328.58
70.63	3241.9
70.64	3033.86
70.65	3051.2
70.66	3172.56
70.67	3224.56
70.68	3328.58
70.69	3276.57
70.7	3432.6
70.71	3640.64
70.72	3363.26
70.73	3276.57
70.74	3363.26
70.75	3709.98
70.76	3675.31
70.77	3345.92
70.78	3519.28
70.79	3380.59
70.8	3553.96
70.81	2912.51
70.82	3241.9
70.83	3345.92
70.84	3675.31
70.85	3363.26
70.86	3328.58
70.87	3553.96
70.88	3155.22
70.89	3571.29
70.9	3311.25
70.91	3380.59
70.92	3467.27
70.93	3449.94
70.94	3761.99
70.95	3588.63
70.96	3155.22
70.97	3259.24
70.98	3224.56
70.99	3571.29
71	3571.29
71.01	3380.59
71.02	3311.25
71.03	2999.19
71.04	3380.59
71.05	3848.67
71.06	3311.25
71.07	2947.18
71.08	3120.55
71.09	3397.93
71.1	3918.02
71.11	3623.3
71.12	3293.91
71.13	3519.28
71.14	3900.68
71.15	3744.66
71.16	3796.67
71.17	3415.26
71.18	3727.32
71.19	3796.67
71.2	2721.81
71.21	3363.26
71.22	3345.92
71.23	3571.29
71.24	3363.26
71.25	3311.25
71.26	3311.25
71.27	3224.56
71.28	3501.95
71.29	3501.95
71.3	3415.26
71.31	2999.19
71.32	3796.67
71.33	3467.27
71.34	3016.53
71.35	3293.91
71.36	3172.56
71.37	3866.01
71.38	3657.97
71.39	3415.26
71.4	3588.63
71.41	3259.24
71.42	3623.3
71.43	3467.27
71.44	3588.63
71.45	3484.61
71.46	2912.51
71.47	3363.26
71.48	3155.22
71.49	3519.28
71.5	3692.65
71.51	3536.62
71.52	3640.64
71.53	3276.57
71.54	3657.97
71.55	3640.64
71.56	3224.56
71.57	3207.23
71.58	3293.91
71.59	3155.22
71.6	3155.22
71.61	4022.04
71.62	3241.9
71.63	3103.21
71.64	3432.6
71.65	3588.63
71.66	3501.95
71.67	3415.26
71.68	3449.94
71.69	3259.24
71.7	3553.96
71.71	3345.92
71.72	3779.33
71.73	3623.3
71.74	3657.97
71.75	3501.95
71.76	3501.95
71.77	3276.57
71.78	3432.6
71.79	3467.27
71.8	3259.24
71.81	3033.86
71.82	3571.29
71.83	3051.2
71.84	3415.26
71.85	3415.26
71.86	3172.56
71.87	3207.23
71.88	3016.53
71.89	3276.57
71.9	3605.97
71.91	3467.27
71.92	3467.27
71.93	3085.87
71.94	3536.62
71.95	3363.26
71.96	3571.29
71.97	3761.99
71.98	3709.98
71.99	3692.65
72	3137.88
72.01	3363.26
72.02	3814
72.03	4004.7
72.04	3588.63
72.05	3883.35
72.06	3363.26
72.07	3883.35
72.08	3883.35
72.09	3883.35
72.1	3484.61
72.11	3814
72.12	3657.97
72.13	3259.24
72.14	3796.67
72.15	3449.94
72.16	3449.94
72.17	3553.96
72.18	3814
72.19	4212.74
72.2	4022.04
72.21	3692.65
72.22	3484.61
72.23	3866.01
72.24	3848.67
72.25	3501.95
72.26	4195.4
72.27	3883.35
72.28	3935.36
72.29	3848.67
72.3	3848.67
72.31	3970.03
72.32	4022.04
72.33	3519.28
72.34	3952.69
72.35	3970.03
72.36	3935.36
72.37	3692.65
72.38	3814
72.39	4160.73
72.4	3623.3
72.41	4264.75
72.42	3831.34
72.43	4004.7
72.44	4126.06
72.45	3796.67
72.46	3918.02
72.47	3952.69
72.48	3883.35
72.49	3918.02
72.5	4455.45
72.51	3952.69
72.52	4074.05
72.53	4178.07
72.54	3918.02
72.55	4074.05
72.56	4386.1
72.57	4056.71
72.58	4108.72
72.59	4091.38
72.6	3970.03
72.61	3709.98
72.62	3918.02
72.63	3623.3
72.64	3744.66
72.65	3779.33
72.66	4316.76
72.67	3900.68
72.68	3293.91
72.69	3467.27
72.7	3415.26
72.71	3605.97
72.72	3363.26
72.73	3952.69
72.74	4039.37
72.75	4039.37
72.76	3952.69
72.77	3744.66
72.78	3900.68
72.79	3831.34
72.8	3883.35
72.81	4039.37
72.82	3484.61
72.83	4143.39
72.84	3935.36
72.85	4022.04
72.86	3675.31
72.87	4108.72
72.88	4056.71
72.89	3831.34
72.9	3918.02
72.91	3207.23
72.92	3484.61
72.93	3536.62
72.94	3883.35
72.95	3935.36
72.96	3588.63
72.97	3692.65
72.98	3397.93
72.99	3866.01
73	3571.29
73.01	3189.89
73.02	3605.97
73.03	4056.71
73.04	3883.35
73.05	3796.67
73.06	3796.67
73.07	3814
73.08	4039.37
73.09	3900.68
73.1	3935.36
73.11	3709.98
73.12	3640.64
73.13	3397.93
73.14	3311.25
73.15	3761.99
73.16	3345.92
73.17	3432.6
73.18	3866.01
73.19	3640.64
73.2	3709.98
73.21	3605.97
73.22	3519.28
73.23	3709.98
73.24	3484.61
73.25	4004.7
73.26	3571.29
73.27	3172.56
73.28	3883.35
73.29	3623.3
73.3	3293.91
73.31	3588.63
73.32	3727.32
73.33	3345.92
73.34	3571.29
73.35	4056.71
73.36	3640.64
73.37	4160.73
73.38	3987.37
73.39	3605.97
73.4	3432.6
73.41	3276.57
73.42	3467.27
73.43	3536.62
73.44	3571.29
73.45	3605.97
73.46	3970.03
73.47	3657.97
73.48	3814
73.49	3952.69
73.5	3796.67
73.51	3883.35
73.52	3484.61
73.53	3380.59
73.54	3640.64
73.55	3519.28
73.56	3467.27
73.57	3623.3
73.58	4039.37
73.59	3761.99
73.6	3605.97
73.61	3484.61
73.62	3761.99
73.63	4056.71
73.64	4004.7
73.65	3571.29
73.66	3779.33
73.67	3866.01
73.68	3727.32
73.69	4004.7
73.7	4351.43
73.71	3883.35
73.72	3657.97
73.73	3467.27
73.74	4143.39
73.75	4074.05
73.76	3623.3
73.77	3536.62
73.78	3501.95
73.79	3536.62
73.8	3866.01
73.81	3449.94
73.82	3293.91
73.83	3848.67
73.84	3727.32
73.85	4507.46
73.86	4351.43
73.87	4316.76
73.88	3918.02
73.89	3831.34
73.9	3866.01
73.91	4178.07
73.92	4039.37
73.93	3987.37
73.94	3779.33
73.95	3536.62
73.96	3900.68
73.97	4022.04
73.98	4455.45
73.99	3657.97
74	3952.69
74.01	4074.05
74.02	3727.32
74.03	3987.37
74.04	3744.66
74.05	3883.35
74.06	3866.01
74.07	3848.67
74.08	4299.42
74.09	4160.73
74.1	4299.42
74.11	4403.44
74.12	4403.44
74.13	4542.13
74.14	4247.41
74.15	4230.07
74.16	4334.09
74.17	4316.76
74.18	4438.11
74.19	3883.35
74.2	4386.1
74.21	4056.71
74.22	4680.82
74.23	4836.85
74.24	4299.42
74.25	3605.97
74.26	4126.06
74.27	4230.07
74.28	4091.38
74.29	4472.78
74.3	4091.38
74.31	3536.62
74.32	4247.41
74.33	4230.07
74.34	4178.07
74.35	3952.69
74.36	3727.32
74.37	4628.81
74.38	4299.42
74.39	4074.05
74.4	4680.82
74.41	4160.73
74.42	4264.75
74.43	3692.65
74.44	4386.1
74.45	4282.08
74.46	3952.69
74.47	4264.75
74.48	3779.33
74.49	4178.07
74.5	3987.37
74.51	4143.39
74.52	4299.42
74.53	4472.78
74.54	3866.01
74.55	4056.71
74.56	3883.35
74.57	4264.75
74.58	3761.99
74.59	4334.09
74.6	4316.76
74.61	4160.73
74.62	3675.31
74.63	3814
74.64	4091.38
74.65	4022.04
74.66	3519.28
74.67	3571.29
74.68	3848.67
74.69	4212.74
74.7	4039.37
74.71	3987.37
74.72	3900.68
74.73	4299.42
74.74	4126.06
74.75	4074.05
74.76	3709.98
74.77	4368.77
74.78	4368.77
74.79	3866.01
74.8	3605.97
74.81	3883.35
74.82	4230.07
74.83	4195.4
74.84	4143.39
74.85	4299.42
74.86	3900.68
74.87	3415.26
74.88	4091.38
74.89	3970.03
74.9	4143.39
74.91	3935.36
74.92	4247.41
74.93	4143.39
74.94	4126.06
74.95	4282.08
74.96	3918.02
74.97	4334.09
74.98	3814
74.99	3501.95
75	3918.02
75.01	4351.43
75.02	4195.4
75.03	4524.79
75.04	4108.72
75.05	4212.74
75.06	3866.01
75.07	4074.05
75.08	3883.35
75.09	4507.46
75.1	4126.06
75.11	3866.01
75.12	3761.99
75.13	3744.66
75.14	4022.04
75.15	4299.42
75.16	4316.76
75.17	4039.37
75.18	3918.02
75.19	4403.44
75.2	4091.38
75.21	4299.42
75.22	4230.07
75.23	4143.39
75.24	3831.34
75.25	4230.07
75.26	4212.74
75.27	4750.17
75.28	4039.37
75.29	4143.39
75.3	4420.77
75.31	4576.8
75.32	4212.74
75.33	4420.77
75.34	4108.72
75.35	4334.09
75.36	4282.08
75.37	4420.77
75.38	4039.37
75.39	4680.82
75.4	4074.05
75.41	3935.36
75.42	4403.44
75.43	4386.1
75.44	4264.75
75.45	4247.41
75.46	4178.07
75.47	4056.71
75.48	4351.43
75.49	4004.7
75.5	4143.39
75.51	4212.74
75.52	4594.14
75.53	4368.77
75.54	3571.29
75.55	4299.42
75.56	3744.66
75.57	4195.4
75.58	3761.99
75.59	4143.39
75.6	4386.1
75.61	4368.77
75.62	4559.47
75.63	4056.71
75.64	4750.17
75.65	4386.1
75.66	4212.74
75.67	4212.74
75.68	4264.75
75.69	4680.82
75.7	4299.42
75.71	4507.46
75.72	4472.78
75.73	4524.79
75.74	4784.84
75.75	5131.57
75.76	5218.25
75.77	5478.29
75.78	5998.38
75.79	7575.99
75.8	8616.18
75.81	9673.69
75.82	10488.5
75.83	10731.2
75.84	9430.99
75.85	8494.82
75.86	7645.34
75.87	6830.53
75.88	6535.81
75.89	6241.09
75.9	5842.36
75.91	5721
75.92	6067.73
75.93	5599.65
75.94	6015.72
75.95	5530.3
75.96	5894.37
75.97	6587.82
75.98	7229.27
75.99	7506.65
76	7333.28
76.01	8754.87
76.02	8460.15
76.03	8754.87
76.04	7888.05
76.05	7766.69
76.06	7454.64
76.07	7229.27
76.08	6726.51
76.09	7454.64
76.1	7784.03
76.11	7506.65
76.12	7506.65
76.13	7367.96
76.14	7021.23
76.15	6639.83
76.16	6657.17
76.17	6899.88
76.18	7575.99
76.19	8044.08
76.2	8702.86
76.21	8564.17
76.22	7593.33
76.23	7523.98
76.24	6691.84
76.25	7125.25
76.26	6934.55
76.27	6553.15
76.28	7038.57
76.29	7333.28
76.3	7211.93
76.31	6709.18
76.32	7662.68
76.33	7402.63
76.34	7523.98
76.35	6813.19
76.36	7281.28
76.37	6969.22
76.38	7593.33
76.39	8026.74
76.4	7073.24
76.41	7506.65
76.42	6969.22
76.43	6830.53
76.44	6622.49
76.45	5981.05
76.46	6206.42
76.47	6709.18
76.48	6431.79
76.49	7281.28
76.5	7090.58
76.51	6743.85
76.52	7471.98
76.53	6622.49
76.54	6934.55
76.55	6917.21
76.56	6518.48
76.57	6535.81
76.58	6154.41
76.59	6847.87
76.6	6223.76
76.61	7142.58
76.62	6587.82
76.63	7246.6
76.64	7159.92
76.65	6258.43
76.66	6397.12
76.67	5929.04
76.68	5512.97
76.69	5391.61
76.7	5356.94
76.71	5408.95
76.72	4888.86
76.73	5460.96
76.74	5131.57
76.75	5010.21
76.76	4715.49
76.77	5339.6
76.78	5391.61
76.79	5062.22
76.8	5356.94
76.81	4802.17
76.82	4992.87
76.83	5599.65
76.84	4975.54
76.85	5270.26
76.86	5114.23
76.87	4455.45
76.88	4715.49
76.89	4628.81
76.9	4784.84
76.91	4126.06
76.92	4455.45
76.93	3883.35
76.94	4074.05
76.95	4767.5
76.96	3918.02
76.97	4680.82
76.98	4542.13
76.99	4455.45
77	4438.11
77.01	4230.07
77.02	4420.77
77.03	4472.78
77.04	4542.13
77.05	4490.12
77.06	4680.82
77.07	4490.12
77.08	4368.77
77.09	4611.47
77.1	4247.41
77.11	4559.47
77.12	4854.18
77.13	4247.41
77.14	3935.36
77.15	3883.35
77.16	3952.69
77.17	3900.68
77.18	4611.47
77.19	4351.43
77.2	4906.19
77.21	4212.74
77.22	4507.46
77.23	4264.75
77.24	4490.12
77.25	4316.76
77.26	4646.15
77.27	4940.87
77.28	4438.11
77.29	4160.73
77.3	4490.12
77.31	3952.69
77.32	4230.07
77.33	3866.01
77.34	4247.41
77.35	4195.4
77.36	3883.35
77.37	4247.41
77.38	4663.48
77.39	4334.09
77.4	4386.1
77.41	4074.05
77.42	4212.74
77.43	4628.81
77.44	4611.47
77.45	4334.09
77.46	4282.08
77.47	3935.36
77.48	4178.07
77.49	4524.79
77.5	4126.06
77.51	3970.03
77.52	4108.72
77.53	3918.02
77.54	4056.71
77.55	4282.08
77.56	4299.42
77.57	3970.03
77.58	4195.4
77.59	4368.77
77.6	4195.4
77.61	4351.43
77.62	4507.46
77.63	4126.06
77.64	4247.41
77.65	4368.77
77.66	3970.03
77.67	4091.38
77.68	4507.46
77.69	3935.36
77.7	3952.69
77.71	3935.36
77.72	4299.42
77.73	4472.78
77.74	4004.7
77.75	4143.39
77.76	4022.04
77.77	3918.02
77.78	4230.07
77.79	4663.48
77.8	4212.74
77.81	3779.33
77.82	3918.02
77.83	4472.78
77.84	4178.07
77.85	4507.46
77.86	4386.1
77.87	3970.03
77.88	4004.7
77.89	4074.05
77.9	3970.03
77.91	3866.01
77.92	3814
77.93	4212.74
77.94	3831.34
77.95	4230.07
77.96	4178.07
77.97	3675.31
77.98	3831.34
77.99	3970.03
78	3866.01
78.01	3796.67
78.02	4126.06
78.03	4282.08
78.04	4195.4
78.05	3814
78.06	4108.72
78.07	4056.71
78.08	4490.12
78.09	3866.01
78.1	4195.4
78.11	3918.02
78.12	3796.67
78.13	3744.66
78.14	3918.02
78.15	3935.36
78.16	4334.09
78.17	4022.04
78.18	3987.37
78.19	4212.74
78.2	4004.7
78.21	4334.09
78.22	4351.43
78.23	4559.47
78.24	4299.42
78.25	3761.99
78.26	4022.04
78.27	3952.69
78.28	4230.07
78.29	4091.38
78.3	4299.42
78.31	4022.04
78.32	3935.36
78.33	3779.33
78.34	4576.8
78.35	4230.07
78.36	4091.38
78.37	4247.41
78.38	4212.74
78.39	4247.41
78.4	4108.72
78.41	4282.08
78.42	4455.45
78.43	4732.83
78.44	4438.11
78.45	4559.47
78.46	4594.14
78.47	4403.44
78.48	3831.34
78.49	4230.07
78.5	4507.46
78.51	4611.47
78.52	4195.4
78.53	4264.75
78.54	4334.09
78.55	4212.74
78.56	4351.43
78.57	4975.54
78.58	4195.4
78.59	4178.07
78.6	4507.46
78.61	4611.47
78.62	4108.72
78.63	4178.07
78.64	4438.11
78.65	4438.11
78.66	4715.49
78.67	4628.81
78.68	4230.07
78.69	4126.06
78.7	4542.13
78.71	4524.79
78.72	4420.77
78.73	4455.45
78.74	4351.43
78.75	4836.85
78.76	4819.51
78.77	4299.42
78.78	4230.07
78.79	4108.72
78.8	4802.17
78.81	4438.11
78.82	4698.16
78.83	4750.17
78.84	4160.73
78.85	3970.03
78.86	4507.46
78.87	4507.46
78.88	4594.14
78.89	4507.46
78.9	4802.17
78.91	4368.77
78.92	4351.43
78.93	4368.77
78.94	4264.75
78.95	3970.03
78.96	4091.38
78.97	4247.41
78.98	4542.13
78.99	4126.06
79	4542.13
79.01	4264.75
79.02	4178.07
79.03	4403.44
79.04	4351.43
79.05	4247.41
79.06	4472.78
79.07	5027.55
79.08	4542.13
79.09	4195.4
79.1	4160.73
79.11	4559.47
79.12	4056.71
79.13	3935.36
79.14	3744.66
79.15	3623.3
79.16	3866.01
79.17	4299.42
79.18	4195.4
79.19	4247.41
79.2	4160.73
79.21	3571.29
79.22	4230.07
79.23	4212.74
79.24	4334.09
79.25	4472.78
79.26	3727.32
79.27	4542.13
79.28	4160.73
79.29	3952.69
79.3	3761.99
79.31	4264.75
79.32	4455.45
79.33	4264.75
79.34	3744.66
79.35	4195.4
79.36	4316.76
79.37	4056.71
79.38	3692.65
79.39	4438.11
79.4	4490.12
79.41	4143.39
79.42	4056.71
79.43	5010.21
79.44	4524.79
79.45	4195.4
79.46	4195.4
79.47	4108.72
79.48	4992.87
79.49	4490.12
79.5	4299.42
79.51	4767.5
79.52	4524.79
79.53	4524.79
79.54	4871.52
79.55	4767.5
79.56	4628.81
79.57	4126.06
79.58	4490.12
79.59	4403.44
79.6	4732.83
79.61	4455.45
79.62	4004.7
79.63	4784.84
79.64	4576.8
79.65	4264.75
79.66	4992.87
79.67	4299.42
79.68	4264.75
79.69	4403.44
79.7	4143.39
79.71	4178.07
79.72	4472.78
79.73	4108.72
79.74	4316.76
79.75	4438.11
79.76	4091.38
79.77	4091.38
79.78	4594.14
79.79	4576.8
79.8	4542.13
79.81	4334.09
79.82	4802.17
79.83	4472.78
79.84	4230.07
79.85	4576.8
79.86	4594.14
79.87	3918.02
79.88	4247.41
79.89	4403.44
79.9	4784.84
79.91	4784.84
79.92	4351.43
79.93	4455.45
79.94	4230.07
79.95	4576.8
79.96	3987.37
79.97	4507.46
79.98	4299.42
79.99	4195.4
80	4039.37
80.01	4195.4
80.02	4767.5
80.03	4316.76
80.04	4282.08
80.05	4299.42
80.06	3918.02
80.07	4126.06
80.08	4420.77
80.09	4282.08
80.1	4195.4
80.11	4074.05
80.12	4091.38
80.13	3848.67
80.14	4022.04
80.15	3987.37
80.16	4368.77
80.17	4091.38
80.18	4282.08
80.19	4316.76
80.2	4056.71
80.21	4039.37
80.22	3883.35
80.23	4264.75
80.24	4056.71
80.25	3987.37
80.26	3709.98
80.27	4108.72
80.28	4004.7
80.29	4108.72
80.3	4195.4
80.31	3814
80.32	3970.03
80.33	4022.04
80.34	3866.01
80.35	4056.71
80.36	3640.64
80.37	3779.33
80.38	4056.71
80.39	3640.64
80.4	3883.35
80.41	4160.73
80.42	4108.72
80.43	3935.36
80.44	4039.37
80.45	4160.73
80.46	3970.03
80.47	4386.1
80.48	3952.69
80.49	3623.3
80.5	4126.06
80.51	3952.69
80.52	4264.75
80.53	4004.7
80.54	4247.41
80.55	3675.31
80.56	3779.33
80.57	3952.69
80.58	4074.05
80.59	3744.66
80.6	3519.28
80.61	3848.67
80.62	3761.99
80.63	3692.65
80.64	4056.71
80.65	3692.65
80.66	3952.69
80.67	4386.1
80.68	3779.33
80.69	4074.05
80.7	4490.12
80.71	3692.65
80.72	3796.67
80.73	3779.33
80.74	3952.69
80.75	3831.34
80.76	3536.62
80.77	3831.34
80.78	4004.7
80.79	4056.71
80.8	3900.68
80.81	3761.99
80.82	3779.33
80.83	3380.59
80.84	4039.37
80.85	3796.67
80.86	3709.98
80.87	3293.91
80.88	3831.34
80.89	3814
80.9	3848.67
80.91	4039.37
80.92	3536.62
80.93	4212.74
80.94	3883.35
80.95	3952.69
80.96	4316.76
80.97	3761.99
80.98	3588.63
80.99	3675.31
81	4022.04
81.01	3640.64
81.02	3397.93
81.03	3883.35
81.04	3779.33
81.05	3848.67
81.06	4195.4
81.07	3744.66
81.08	3814
81.09	3848.67
81.1	4108.72
81.11	3415.26
81.12	3831.34
81.13	3848.67
81.14	4022.04
81.15	3657.97
81.16	3831.34
81.17	3709.98
81.18	3796.67
81.19	4022.04
81.2	3640.64
81.21	3588.63
81.22	3432.6
81.23	3796.67
81.24	3883.35
81.25	3519.28
81.26	3709.98
81.27	4351.43
81.28	3761.99
81.29	3692.65
81.3	4230.07
81.31	4247.41
81.32	3623.3
81.33	3727.32
81.34	3363.26
81.35	4438.11
81.36	4108.72
81.37	4299.42
81.38	3814
81.39	4039.37
81.4	4039.37
81.41	4490.12
81.42	4004.7
81.43	4646.15
81.44	4022.04
81.45	4230.07
81.46	3883.35
81.47	4316.76
81.48	3709.98
81.49	4004.7
81.5	3623.3
81.51	4334.09
81.52	4230.07
81.53	4559.47
81.54	3519.28
81.55	4091.38
81.56	4455.45
81.57	4212.74
81.58	4126.06
81.59	3796.67
81.6	4368.77
81.61	3935.36
81.62	4091.38
81.63	3883.35
81.64	3952.69
81.65	3866.01
81.66	4195.4
81.67	4230.07
81.68	3935.36
81.69	3779.33
81.7	4004.7
81.71	4126.06
81.72	3657.97
81.73	4108.72
81.74	4663.48
81.75	4594.14
81.76	4230.07
81.77	3935.36
81.78	3831.34
81.79	4212.74
81.8	4212.74
81.81	4022.04
81.82	3935.36
81.83	4126.06
81.84	4195.4
81.85	4178.07
81.86	4160.73
81.87	4542.13
81.88	4316.76
81.89	4403.44
81.9	4091.38
81.91	4334.09
81.92	4472.78
81.93	3814
81.94	3796.67
81.95	4108.72
81.96	4247.41
81.97	4004.7
81.98	4264.75
81.99	4403.44
82	4056.71
82.01	4264.75
82.02	3866.01
82.03	4507.46
82.04	3831.34
82.05	4143.39
82.06	4282.08
82.07	4299.42
82.08	4351.43
82.09	4264.75
82.1	4108.72
82.11	4438.11
82.12	4386.1
82.13	4247.41
82.14	4351.43
82.15	4195.4
82.16	4403.44
82.17	4195.4
82.18	3918.02
82.19	4178.07
82.2	3935.36
82.21	3345.92
82.22	3709.98
82.23	3397.93
82.24	3796.67
82.25	3692.65
82.26	4004.7
82.27	3970.03
82.28	3779.33
82.29	4074.05
82.3	3692.65
82.31	3918.02
82.32	4212.74
82.33	3692.65
82.34	4126.06
82.35	3796.67
82.36	4282.08
82.37	3709.98
82.38	3796.67
82.39	3883.35
82.4	3484.61
82.41	3866.01
82.42	4247.41
82.43	3848.67
82.44	4074.05
82.45	3744.66
82.46	3692.65
82.47	4386.1
82.48	4039.37
82.49	4056.71
82.5	3675.31
82.51	3657.97
82.52	3605.97
82.53	3883.35
82.54	4368.77
82.55	4056.71
82.56	3259.24
82.57	4160.73
82.58	4403.44
82.59	3761.99
82.6	3831.34
82.61	4472.78
82.62	3831.34
82.63	3796.67
82.64	3727.32
82.65	4264.75
82.66	4351.43
82.67	4247.41
82.68	4212.74
82.69	4143.39
82.7	3987.37
82.71	3900.68
82.72	4334.09
82.73	4472.78
82.74	3796.67
82.75	4386.1
82.76	3727.32
82.77	3692.65
82.78	3796.67
82.79	4299.42
82.8	3848.67
82.81	3779.33
82.82	4368.77
82.83	3935.36
82.84	4438.11
82.85	4074.05
82.86	4160.73
82.87	4022.04
82.88	3952.69
82.89	3727.32
82.9	4126.06
82.91	4195.4
82.92	4299.42
82.93	3657.97
82.94	3952.69
82.95	3814
82.96	3709.98
82.97	3918.02
82.98	3605.97
82.99	3519.28
83	3449.94
83.01	3796.67
83.02	4126.06
83.03	3987.37
83.04	3814
83.05	3952.69
83.06	3796.67
83.07	3952.69
83.08	4074.05
83.09	3727.32
83.1	3657.97
83.11	3415.26
83.12	3640.64
83.13	3900.68
83.14	3553.96
83.15	3363.26
83.16	3657.97
83.17	4108.72
83.18	3640.64
83.19	3900.68
83.2	3831.34
83.21	3952.69
83.22	3467.27
83.23	3814
83.24	3900.68
83.25	3900.68
83.26	3796.67
83.27	3692.65
83.28	3727.32
83.29	3657.97
83.3	4126.06
83.31	3866.01
83.32	4143.39
83.33	3588.63
83.34	3363.26
83.35	4126.06
83.36	3970.03
83.37	3380.59
83.38	3900.68
83.39	3553.96
83.4	4143.39
83.41	3814
83.42	4039.37
83.43	3831.34
83.44	4091.38
83.45	3831.34
83.46	3796.67
83.47	3796.67
83.48	4178.07
83.49	4091.38
83.5	3588.63
83.51	3744.66
83.52	3640.64
83.53	3744.66
83.54	3692.65
83.55	3675.31
83.56	3571.29
83.57	3588.63
83.58	3831.34
83.59	3501.95
83.6	3553.96
83.61	4264.75
83.62	3467.27
83.63	3709.98
83.64	3623.3
83.65	3467.27
83.66	3935.36
83.67	3241.9
83.68	3640.64
83.69	3709.98
83.7	3744.66
83.71	3848.67
83.72	3935.36
83.73	3397.93
83.74	3831.34
83.75	3432.6
83.76	4039.37
83.77	3848.67
83.78	3432.6
83.79	3761.99
83.8	3935.36
83.81	3883.35
83.82	3779.33
83.83	3761.99
83.84	4195.4
83.85	3987.37
83.86	3709.98
83.87	3779.33
83.88	3397.93
83.89	3779.33
83.9	3744.66
83.91	3536.62
83.92	3449.94
83.93	3623.3
83.94	3848.67
83.95	3709.98
83.96	3536.62
83.97	3605.97
83.98	3796.67
83.99	3484.61
84	3761.99
84.01	3709.98
84.02	3536.62
84.03	3623.3
84.04	4039.37
84.05	3779.33
84.06	3848.67
84.07	3935.36
84.08	3970.03
84.09	3796.67
84.1	3831.34
84.11	3709.98
84.12	3241.9
84.13	3692.65
84.14	3970.03
84.15	4074.05
84.16	3363.26
84.17	3761.99
84.18	3761.99
84.19	3831.34
84.2	3761.99
84.21	3987.37
84.22	3952.69
84.23	3588.63
84.24	3848.67
84.25	3571.29
84.26	3293.91
84.27	4074.05
84.28	3848.67
84.29	3103.21
84.3	3831.34
84.31	4039.37
84.32	3744.66
84.33	3657.97
84.34	3744.66
84.35	3987.37
84.36	3814
84.37	3692.65
84.38	4056.71
84.39	3727.32
84.4	3779.33
84.41	3952.69
84.42	3918.02
84.43	3588.63
84.44	3709.98
84.45	3987.37
84.46	3484.61
84.47	3501.95
84.48	3918.02
84.49	3744.66
84.5	3744.66
84.51	4039.37
84.52	3761.99
84.53	4056.71
84.54	3605.97
84.55	3640.64
84.56	3866.01
84.57	3935.36
84.58	3761.99
84.59	3536.62
84.6	3623.3
84.61	3692.65
84.62	3744.66
84.63	4143.39
84.64	3605.97
84.65	3727.32
84.66	3692.65
84.67	4091.38
84.68	3900.68
84.69	3692.65
84.7	3918.02
84.71	4195.4
84.72	3709.98
84.73	3501.95
84.74	3640.64
84.75	3779.33
84.76	3657.97
84.77	4126.06
84.78	3796.67
84.79	3744.66
84.8	4004.7
84.81	3987.37
84.82	3814
84.83	3918.02
84.84	3605.97
84.85	3761.99
84.86	3675.31
84.87	3397.93
84.88	3900.68
84.89	3467.27
84.9	3657.97
84.91	3866.01
84.92	3536.62
84.93	3987.37
84.94	3415.26
84.95	3605.97
84.96	3796.67
84.97	3501.95
84.98	3432.6
84.99	3935.36
85	3727.32
85.01	3675.31
85.02	3519.28
85.03	3831.34
85.04	3727.32
85.05	4074.05
85.06	3380.59
85.07	3276.57
85.08	3744.66
85.09	4056.71
85.1	3241.9
85.11	3276.57
85.12	3519.28
85.13	3675.31
85.14	3727.32
85.15	3987.37
85.16	3848.67
85.17	3571.29
85.18	3519.28
85.19	4074.05
85.2	3311.25
85.21	3675.31
85.22	3553.96
85.23	4004.7
85.24	3970.03
85.25	3484.61
85.26	3796.67
85.27	3605.97
85.28	3761.99
85.29	3484.61
85.3	3952.69
85.31	3970.03
85.32	3935.36
85.33	3883.35
85.34	3935.36
85.35	3918.02
85.36	3970.03
85.37	3467.27
85.38	3918.02
85.39	3970.03
85.4	3432.6
85.41	3692.65
85.42	3640.64
85.43	3657.97
85.44	3293.91
85.45	3640.64
85.46	3519.28
85.47	3796.67
85.48	3727.32
85.49	4212.74
85.5	3519.28
85.51	3588.63
85.52	3657.97
85.53	3623.3
85.54	3709.98
85.55	3866.01
85.56	3501.95
85.57	3501.95
85.58	3970.03
85.59	3709.98
85.6	3571.29
85.61	3640.64
85.62	3657.97
85.63	3657.97
85.64	3623.3
85.65	3657.97
85.66	3259.24
85.67	3588.63
85.68	3588.63
85.69	3519.28
85.7	3293.91
85.71	3588.63
85.72	3657.97
85.73	4143.39
85.74	3605.97
85.75	3241.9
85.76	3311.25
85.77	3276.57
85.78	3657.97
85.79	3588.63
85.8	3605.97
85.81	4022.04
85.82	3484.61
85.83	3900.68
85.84	3640.64
85.85	3935.36
85.86	3536.62
85.87	3432.6
85.88	3276.57
85.89	4126.06
85.9	3831.34
85.91	3935.36
85.92	3779.33
85.93	3467.27
85.94	3449.94
85.95	3692.65
85.96	3866.01
85.97	3605.97
85.98	3866.01
85.99	4022.04
86	3848.67
86.01	3848.67
86.02	3866.01
86.03	3553.96
86.04	3605.97
86.05	3692.65
86.06	3051.2
86.07	3675.31
86.08	3415.26
86.09	3796.67
86.1	3796.67
86.11	3900.68
86.12	3779.33
86.13	3640.64
86.14	3536.62
86.15	3623.3
86.16	3779.33
86.17	3744.66
86.18	3484.61
86.19	3623.3
86.2	3623.3
86.21	3918.02
86.22	3831.34
86.23	3605.97
86.24	3918.02
86.25	3571.29
86.26	3536.62
86.27	3952.69
86.28	3744.66
86.29	3415.26
86.3	3553.96
86.31	3553.96
86.32	3241.9
86.33	3345.92
86.34	3588.63
86.35	3605.97
86.36	3744.66
86.37	3484.61
86.38	3935.36
86.39	3311.25
86.4	3796.67
86.41	3640.64
86.42	3293.91
86.43	3675.31
86.44	3588.63
86.45	3363.26
86.46	3380.59
86.47	3276.57
86.48	3501.95
86.49	3415.26
86.5	3259.24
86.51	3328.58
86.52	3675.31
86.53	3293.91
86.54	3172.56
86.55	3571.29
86.56	3501.95
86.57	3467.27
86.58	3900.68
86.59	3189.89
86.6	3761.99
86.61	3363.26
86.62	3692.65
86.63	3571.29
86.64	3415.26
86.65	3189.89
86.66	3449.94
86.67	3449.94
86.68	3623.3
86.69	3432.6
86.7	3605.97
86.71	3571.29
86.72	3467.27
86.73	3501.95
86.74	3709.98
86.75	3692.65
86.76	3640.64
86.77	3380.59
86.78	3432.6
86.79	3640.64
86.8	3501.95
86.81	3363.26
86.82	3640.64
86.83	3397.93
86.84	3328.58
86.85	3189.89
86.86	3692.65
86.87	2929.85
86.88	3293.91
86.89	3848.67
86.9	3449.94
86.91	3328.58
86.92	3259.24
86.93	3051.2
86.94	4126.06
86.95	3449.94
86.96	3311.25
86.97	3224.56
86.98	3605.97
86.99	3293.91
87	3363.26
87.01	3588.63
87.02	3449.94
87.03	3432.6
87.04	3189.89
87.05	3293.91
87.06	3536.62
87.07	3484.61
87.08	3276.57
87.09	3207.23
87.1	3328.58
87.11	3415.26
87.12	3501.95
87.13	3120.55
87.14	3328.58
87.15	3397.93
87.16	3328.58
87.17	3415.26
87.18	3501.95
87.19	3553.96
87.2	3657.97
87.21	3657.97
87.22	3241.9
87.23	4004.7
87.24	3449.94
87.25	3536.62
87.26	3432.6
87.27	3744.66
87.28	3814
87.29	3883.35
87.3	3155.22
87.31	3553.96
87.32	3415.26
87.33	3415.26
87.34	3501.95
87.35	3623.3
87.36	3484.61
87.37	3259.24
87.38	3293.91
87.39	3137.88
87.4	3085.87
87.41	3259.24
87.42	2999.19
87.43	3744.66
87.44	3103.21
87.45	3397.93
87.46	3363.26
87.47	3432.6
87.48	3241.9
87.49	3207.23
87.5	3657.97
87.51	3814
87.52	3293.91
87.53	3137.88
87.54	3640.64
87.55	3432.6
87.56	3224.56
87.57	3415.26
87.58	3536.62
87.59	3345.92
87.6	3311.25
87.61	3449.94
87.62	3432.6
87.63	3051.2
87.64	3172.56
87.65	3571.29
87.66	3484.61
87.67	3449.94
87.68	3432.6
87.69	3241.9
87.7	3397.93
87.71	3293.91
87.72	3120.55
87.73	3224.56
87.74	3449.94
87.75	3519.28
87.76	3137.88
87.77	3467.27
87.78	3623.3
87.79	3033.86
87.8	3449.94
87.81	3449.94
87.82	3519.28
87.83	3224.56
87.84	3484.61
87.85	3640.64
87.86	3207.23
87.87	3571.29
87.88	3553.96
87.89	3397.93
87.9	3328.58
87.91	3779.33
87.92	3397.93
87.93	3085.87
87.94	3276.57
87.95	3311.25
87.96	3761.99
87.97	3709.98
87.98	3519.28
87.99	3519.28
88	3519.28
88.01	3328.58
88.02	3415.26
88.03	3900.68
88.04	3623.3
88.05	3241.9
88.06	3311.25
88.07	3692.65
88.08	3207.23
88.09	3241.9
88.1	3172.56
88.11	3588.63
88.12	3467.27
88.13	3345.92
88.14	2929.85
88.15	3605.97
88.16	3657.97
88.17	3120.55
88.18	3536.62
88.19	3536.62
88.2	3241.9
88.21	3449.94
88.22	3397.93
88.23	3293.91
88.24	3571.29
88.25	3779.33
88.26	3796.67
88.27	3536.62
88.28	2964.52
88.29	3137.88
88.3	3293.91
88.31	3172.56
88.32	3241.9
88.33	3571.29
88.34	3779.33
88.35	3397.93
88.36	3484.61
88.37	3519.28
88.38	3536.62
88.39	3189.89
88.4	3016.53
88.41	3311.25
88.42	3328.58
88.43	3761.99
88.44	3883.35
88.45	3380.59
88.46	3189.89
88.47	3397.93
88.48	2791.16
88.49	3137.88
88.5	3051.2
88.51	2895.17
88.52	3259.24
88.53	3363.26
88.54	3536.62
88.55	3311.25
88.56	3293.91
88.57	3189.89
88.58	3259.24
88.59	3207.23
88.6	3623.3
88.61	3172.56
88.62	3588.63
88.63	3241.9
88.64	3155.22
88.65	3345.92
88.66	3068.54
88.67	2929.85
88.68	3241.9
88.69	3363.26
88.7	2981.86
88.71	3311.25
88.72	3189.89
88.73	3189.89
88.74	3363.26
88.75	3241.9
88.76	3692.65
88.77	3380.59
88.78	3623.3
88.79	3051.2
88.8	3328.58
88.81	3380.59
88.82	3657.97
88.83	2773.82
88.84	3657.97
88.85	3311.25
88.86	3345.92
88.87	3744.66
88.88	3432.6
88.89	3189.89
88.9	3588.63
88.91	3501.95
88.92	3432.6
88.93	3432.6
88.94	3241.9
88.95	3415.26
88.96	3831.34
88.97	3571.29
88.98	3571.29
88.99	3675.31
89	4004.7
89.01	3935.36
89.02	3675.31
89.03	3328.58
89.04	3155.22
89.05	3172.56
89.06	3207.23
89.07	3224.56
89.08	3744.66
89.09	3605.97
89.1	3276.57
89.11	3293.91
89.12	2739.15
89.13	3068.54
89.14	2964.52
89.15	3311.25
89.16	2877.84
89.17	3519.28
89.18	3207.23
89.19	3866.01
89.2	3345.92
89.21	3692.65
89.22	2964.52
89.23	2877.84
89.24	3051.2
89.25	3224.56
89.26	3137.88
89.27	3363.26
89.28	3484.61
89.29	3519.28
89.3	3311.25
89.31	3553.96
89.32	3675.31
89.33	3623.3
89.34	3276.57
89.35	3501.95
89.36	3415.26
89.37	3103.21
89.38	3449.94
89.39	2895.17
89.4	3467.27
89.41	3016.53
89.42	3085.87
89.43	3120.55
89.44	3207.23
89.45	3137.88
89.46	3415.26
89.47	2981.86
89.48	3432.6
89.49	3328.58
89.5	3293.91
89.51	2808.49
89.52	3241.9
89.53	3397.93
89.54	3432.6
89.55	2843.16
89.56	2981.86
89.57	3276.57
89.58	3293.91
89.59	3345.92
89.6	3519.28
89.61	3241.9
89.62	3553.96
89.63	3068.54
89.64	3172.56
89.65	3519.28
89.66	3328.58
89.67	3709.98
89.68	3189.89
89.69	2843.16
89.7	2999.19
89.71	2929.85
89.72	3293.91
89.73	3085.87
89.74	3172.56
89.75	3293.91
89.76	3380.59
89.77	3259.24
89.78	3207.23
89.79	3311.25
89.8	3484.61
89.81	3623.3
89.82	3328.58
89.83	3415.26
89.84	3224.56
89.85	3051.2
89.86	2791.16
89.87	3103.21
89.88	3120.55
89.89	3224.56
89.9	3137.88
89.91	3432.6
89.92	3120.55
89.93	3363.26
89.94	3397.93
89.95	3224.56
89.96	3380.59
89.97	3605.97
89.98	3449.94
89.99	3467.27
90	3831.34
.94	2704.47
89.95	2999.19
89.96	2721.81
89.97	2981.86
89.98	2704.47
89.99	2912.51
90	2947.18
