Sample	 
Comments	 
Filename	C:\Data\西出研\梅木\20211102オペ\ベッセル\LiFTFSI20wt_2θ_θ.raw
Goniometer	SmartLab(In-plane)
Attachment	Zステージ単独
Monochromater	None
X	0
Y	0
Z	0.03946
ScanningMode	2Theta/Theta
ScanningType	Continuos Scanning
X-Ray	40kV/30mA
入射スリット	2/3deg
受光スリット1	20.000mm
受光スリット2	20.000mm
Cu_K-beta	
Start	5
Stop	60
Step	0.02
Speed	21.6746
Offset	0
5	52398.3
5.02	50140.5
5.04	47864.7
5.06	47611.8
5.08	45787.5
5.1	46835.1
5.12	45715.3
5.14	43674.3
5.16	43295
5.18	40368.9
5.2	40603.7
5.22	39538
5.24	39249
5.26	38634.9
5.28	37876.3
5.3	36973.2
5.32	35510.2
5.34	35257.3
5.36	33685.9
5.38	34029.1
5.4	33631.7
5.42	33270.5
5.44	31825.5
5.46	32421.6
5.48	30814
5.5	32331.2
5.52	30434.7
5.54	30850.1
5.56	30669.5
5.58	29513.5
5.6	29603.9
5.62	29712.2
5.64	29549.7
5.66	29730.3
5.68	29947
5.7	29477.4
5.72	29748.4
5.74	27960.2
5.76	28195
5.78	27924.1
5.8	28827.2
5.82	26659.7
5.84	28700.8
5.86	27617
5.88	27869.9
5.9	25901.1
5.92	28050.5
5.94	26587.5
5.96	27400.3
5.98	27418.3
6	26876.5
6.02	27743.5
6.04	28827.2
6.06	27093.2
6.08	27815.7
6.1	27779.6
6.12	27635.1
6.14	27237.7
6.16	27869.9
6.18	27725.4
6.2	27833.8
6.22	28664.6
6.24	27328
6.26	28104.7
6.28	27580.9
6.3	26695.9
6.32	26876.5
6.34	27093.2
6.36	26623.6
6.38	27671.2
6.4	27906
6.42	28086.6
6.44	27833.8
6.46	27255.8
6.48	27328
6.5	28068.6
6.52	25557.9
6.54	27761.5
6.56	26677.8
6.58	27255.8
6.6	28411.8
6.62	25431.5
6.64	28321.4
6.66	27147.4
6.68	28863.3
6.7	28249.2
6.72	27454.5
6.74	27725.4
6.76	27039
6.78	27346.1
6.8	26497.2
6.82	26948.7
6.84	27544.8
6.86	27779.6
6.88	27653.1
6.9	28700.8
6.92	27346.1
6.94	27635.1
6.96	26804.2
6.98	26641.7
7	27255.8
7.02	26479.1
7.04	26894.5
7.06	26461
7.08	27454.5
7.1	26804.2
7.12	26226.2
7.14	27129.3
7.16	27653.1
7.18	27183.5
7.2	27183.5
7.22	26045.6
7.24	25521.8
7.26	25937.2
7.28	26713.9
7.3	26966.8
7.32	25973.4
7.34	27075.2
7.36	26406.9
7.38	27021
7.4	27075.2
7.42	27526.7
7.44	27039
7.46	25268.9
7.48	25232.8
7.5	26316.5
7.52	26190.1
7.54	26497.2
7.56	26424.9
7.58	26424.9
7.6	26117.9
7.62	26045.6
7.64	26099.8
7.66	26768.1
7.68	26443
7.7	26479.1
7.72	27382.2
7.74	26623.6
7.76	26370.7
7.78	27111.3
7.8	26045.6
7.82	26226.2
7.84	25973.4
7.86	27418.3
7.88	26298.5
7.9	25341.2
7.92	26370.7
7.94	26804.2
7.96	25395.4
7.98	27129.3
8	26479.1
8.02	26876.5
8.04	26172.1
8.06	25865
8.08	26081.7
8.1	26659.7
8.12	25684.4
8.14	25467.6
8.16	24636.8
8.18	25305.1
8.2	25865
8.22	26551.4
8.24	25955.3
8.26	25684.4
8.28	27472.5
8.3	27147.4
8.32	27364.2
8.34	26081.7
8.36	25323.1
8.38	25702.4
8.4	25449.6
8.42	26515.2
8.44	25828.9
8.46	27508.7
8.48	27002.9
8.5	26623.6
8.52	27490.6
8.54	27400.3
8.56	26713.9
8.58	27111.3
8.6	27111.3
8.62	27761.5
8.64	26154
8.66	26424.9
8.68	27562.8
8.7	27526.7
8.72	26695.9
8.74	27653.1
8.76	27111.3
8.78	26027.6
8.8	27978.3
8.82	26984.8
8.84	27002.9
8.86	26677.8
8.88	26370.7
8.9	27057.1
8.92	25268.9
8.94	26750
8.96	25016.1
8.98	26533.3
9	24691
9.02	27418.3
9.04	26587.5
9.06	26334.6
9.08	26822.3
9.1	26099.8
9.12	24943.8
9.14	24943.8
9.16	25702.4
9.18	25792.7
9.2	26515.2
9.22	26858.4
9.24	25612.1
9.26	25594.1
9.28	25341.2
9.3	26786.2
9.32	25539.9
9.34	26786.2
9.36	25738.6
9.38	26424.9
9.4	26551.4
9.42	24781.3
9.44	26172.1
9.46	24745.1
9.48	24438.1
9.5	24654.8
9.52	26009.5
9.54	25070.3
9.56	25305.1
9.58	25341.2
9.6	24763.2
9.62	26045.6
9.64	25539.9
9.66	25846.9
9.68	25774.7
9.7	25431.5
9.72	25557.9
9.74	25792.7
9.76	25901.1
9.78	23968.5
9.8	25792.7
9.82	25160.6
9.84	25214.8
9.86	26135.9
9.88	26154
9.9	25955.3
9.92	24943.8
9.94	24925.8
9.96	24853.5
9.98	25503.8
10	26226.2
10.02	25395.4
10.04	24221.3
10.06	25359.3
10.08	25684.4
10.1	25810.8
10.12	25268.9
10.14	25792.7
10.16	25684.4
10.18	25702.4
10.2	25196.7
10.22	25521.8
10.24	24329.7
10.26	25485.7
10.28	26226.2
10.3	24799.3
10.32	24239.4
10.34	24365.8
10.36	26298.5
10.38	24636.8
10.4	25106.4
10.42	25088.3
10.44	25648.2
10.46	24763.2
10.48	25865
10.5	25521.8
10.52	25305.1
10.54	26154
10.56	25088.3
10.58	26045.6
10.6	24329.7
10.62	25684.4
10.64	25955.3
10.66	25756.6
10.68	23444.7
10.7	25214.8
10.72	25846.9
10.74	24600.6
10.76	26063.7
10.78	26063.7
10.8	25323.1
10.82	25431.5
10.84	25883.1
10.86	25503.8
10.88	25214.8
10.9	24347.8
10.92	25413.4
10.94	24654.8
10.96	25865
10.98	26154
11	25594.1
11.02	24979.9
11.04	24347.8
11.06	24709
11.08	25684.4
11.1	25720.5
11.12	24383.9
11.14	25684.4
11.16	25720.5
11.18	26099.8
11.2	25828.9
11.22	25503.8
11.24	25630.2
11.26	25720.5
11.28	23878.2
11.3	25612.1
11.32	26894.5
11.34	25955.3
11.36	25720.5
11.38	24293.6
11.4	24943.8
11.42	25883.1
11.44	26226.2
11.46	24275.5
11.48	25594.1
11.5	25720.5
11.52	25666.3
11.54	27002.9
11.56	25359.3
11.58	25341.2
11.6	25991.4
11.62	26063.7
11.64	26009.5
11.66	25648.2
11.68	25449.6
11.7	25901.1
11.72	27237.7
11.74	24853.5
11.76	26154
11.78	24925.8
11.8	26208.2
11.82	25323.1
11.84	25883.1
11.86	25756.6
11.88	26605.5
11.9	25377.3
11.92	26262.4
11.94	24727.1
11.96	24998
11.98	26316.5
12	25377.3
12.02	27635.1
12.04	25503.8
12.06	24654.8
12.08	24998
12.1	25124.4
12.12	25377.3
12.14	26154
12.16	25485.7
12.18	25756.6
12.2	25250.9
12.22	25395.4
12.24	25937.2
12.26	24799.3
12.28	25268.9
12.3	25648.2
12.32	25955.3
12.34	25268.9
12.36	25196.7
12.38	25413.4
12.4	25901.1
12.42	26081.7
12.44	25539.9
12.46	24618.7
12.48	25503.8
12.5	25991.4
12.52	26081.7
12.54	25106.4
12.56	25268.9
12.58	25828.9
12.6	24691
12.62	25901.1
12.64	25666.3
12.66	26695.9
12.68	27382.2
12.7	25955.3
12.72	25449.6
12.74	26695.9
12.76	25287
12.78	24979.9
12.8	25648.2
12.82	26876.5
12.84	26370.7
12.86	25720.5
12.88	26641.7
12.9	26515.2
12.92	26135.9
12.94	25846.9
12.96	27093.2
12.98	26298.5
13	25846.9
13.02	25865
13.04	26226.2
13.06	25937.2
13.08	25702.4
13.1	25684.4
13.12	25810.8
13.14	24654.8
13.16	25232.8
13.18	27201.6
13.2	23986.5
13.22	26117.9
13.24	26515.2
13.26	25883.1
13.28	25846.9
13.3	26677.8
13.32	25991.4
13.34	25937.2
13.36	24835.5
13.38	26406.9
13.4	25865
13.42	25756.6
13.44	27472.5
13.46	26244.3
13.48	25196.7
13.5	26154
13.52	27093.2
13.54	25756.6
13.56	25557.9
13.58	25323.1
13.6	26244.3
13.62	25395.4
13.64	26370.7
13.66	25196.7
13.68	26027.6
13.7	25612.1
13.72	26117.9
13.74	26461
13.76	25810.8
13.78	26154
13.8	26244.3
13.82	26208.2
13.84	25287
13.86	24907.7
13.88	26424.9
13.9	25539.9
13.92	25666.3
13.94	24835.5
13.96	26135.9
13.98	26840.3
14	25937.2
14.02	25865
14.04	25846.9
14.06	26515.2
14.08	25919.2
14.1	25521.8
14.12	25883.1
14.14	25937.2
14.16	25323.1
14.18	25901.1
14.2	25630.2
14.22	25991.4
14.24	25901.1
14.26	25594.1
14.28	25016.1
14.3	26045.6
14.32	26262.4
14.34	25937.2
14.36	26244.3
14.38	25666.3
14.4	26370.7
14.42	25774.7
14.44	24221.3
14.46	24691
14.48	24925.8
14.5	27526.7
14.52	26262.4
14.54	24456.1
14.56	26154
14.58	25774.7
14.6	25341.2
14.62	25738.6
14.64	25485.7
14.66	24564.5
14.68	25232.8
14.7	25449.6
14.72	25630.2
14.74	24564.5
14.76	24979.9
14.78	25937.2
14.8	25160.6
14.82	24817.4
14.84	25305.1
14.86	24943.8
14.88	25521.8
14.9	25557.9
14.92	25287
14.94	25630.2
14.96	24781.3
14.98	25016.1
15	26063.7
15.02	24871.6
15.04	25467.6
15.06	25720.5
15.08	24672.9
15.1	26479.1
15.12	25774.7
15.14	24492.3
15.16	24817.4
15.18	24745.1
15.2	25395.4
15.22	25106.4
15.24	26406.9
15.26	24239.4
15.28	24275.5
15.3	25268.9
15.32	26244.3
15.34	25268.9
15.36	25720.5
15.38	25702.4
15.4	24998
15.42	25106.4
15.44	23444.7
15.46	26172.1
15.48	24257.5
15.5	25124.4
15.52	26641.7
15.54	24275.5
15.56	25377.3
15.58	25467.6
15.6	25323.1
15.62	24709
15.64	25756.6
15.66	25648.2
15.68	25846.9
15.7	25792.7
15.72	25377.3
15.74	24564.5
15.76	24961.9
15.78	25431.5
15.8	24311.7
15.82	25449.6
15.84	25214.8
15.86	25431.5
15.88	24058.8
15.9	24329.7
15.92	25467.6
15.94	25232.8
15.96	25576
15.98	24727.1
16	25449.6
16.02	24149.1
16.04	25160.6
16.06	24492.3
16.08	25431.5
16.1	24600.6
16.12	25016.1
16.14	25268.9
16.16	25630.2
16.18	26677.8
16.2	24094.9
16.22	24564.5
16.24	25684.4
16.26	25142.5
16.28	25124.4
16.3	25124.4
16.32	23535
16.34	24889.6
16.36	24745.1
16.38	24510.3
16.4	24058.8
16.42	24149.1
16.44	25016.1
16.46	24528.4
16.48	25088.3
16.5	24727.1
16.52	25648.2
16.54	24727.1
16.56	23733.7
16.58	24076.8
16.6	24058.8
16.62	24365.8
16.64	24492.3
16.66	23914.3
16.68	24257.5
16.7	24654.8
16.72	24600.6
16.74	23209.9
16.76	24347.8
16.78	23589.2
16.8	25196.7
16.82	23300.2
16.84	24402
16.86	23679.5
16.88	24167.2
16.9	24799.3
16.92	25160.6
16.94	24709
16.96	24131
16.98	24799.3
17	24672.9
17.02	25557.9
17.04	25576
17.06	25792.7
17.08	25684.4
17.1	24347.8
17.12	24691
17.14	25034.1
17.16	26154
17.18	25323.1
17.2	25431.5
17.22	24456.1
17.24	25937.2
17.26	24853.5
17.28	25810.8
17.3	25052.2
17.32	25485.7
17.34	26045.6
17.36	25377.3
17.38	24889.6
17.4	24961.9
17.42	25612.1
17.44	25774.7
17.46	25774.7
17.48	25268.9
17.5	24817.4
17.52	24654.8
17.54	25467.6
17.56	26858.4
17.58	25774.7
17.6	25810.8
17.62	26713.9
17.64	24239.4
17.66	24510.3
17.68	24510.3
17.7	26334.6
17.72	24709
17.74	24745.1
17.76	24167.2
17.78	24727.1
17.8	23896.2
17.82	23842
17.84	25034.1
17.86	23462.7
17.88	24221.3
17.9	24618.7
17.92	23535
17.94	23535
17.96	23372.4
17.98	24113
18	24040.7
18.02	24853.5
18.04	24131
18.06	23426.6
18.08	24275.5
18.1	24492.3
18.12	24907.7
18.14	25485.7
18.16	24672.9
18.18	25142.5
18.2	26280.4
18.22	26551.4
18.24	25648.2
18.26	26045.6
18.28	25431.5
18.3	25142.5
18.32	23950.4
18.34	24998
18.36	24745.1
18.38	24889.6
18.4	25883.1
18.42	24221.3
18.44	25305.1
18.46	25124.4
18.48	24636.8
18.5	25503.8
18.52	26262.4
18.54	25883.1
18.56	25666.3
18.58	26009.5
18.6	26822.3
18.62	26370.7
18.64	26262.4
18.66	27761.5
18.68	28574.3
18.7	28628.5
18.72	28520.1
18.74	29549.7
18.76	30886.3
18.78	31066.9
18.8	28086.6
18.82	29802.5
18.84	28502.1
18.86	28989.7
18.88	27978.3
18.9	27725.4
18.92	27075.2
18.94	26406.9
18.96	25973.4
18.98	25395.4
19	24076.8
19.02	26298.5
19.04	25431.5
19.06	23824
19.08	24022.7
19.1	24727.1
19.12	25160.6
19.14	25142.5
19.16	24979.9
19.18	23643.3
19.2	25467.6
19.22	25702.4
19.24	26948.7
19.26	25774.7
19.28	26840.3
19.3	28032.5
19.32	27057.1
19.34	26732
19.36	26190.1
19.38	26786.2
19.4	26786.2
19.42	26966.8
19.44	26027.6
19.46	25792.7
19.48	24492.3
19.5	24239.4
19.52	24763.2
19.54	24672.9
19.56	24022.7
19.58	23462.7
19.6	23787.8
19.62	23246
19.64	22631.9
19.66	24076.8
19.68	23246
19.7	22433.2
19.72	21999.7
19.74	23372.4
19.76	23824
19.78	22794.4
19.8	23083.4
19.82	22938.9
19.84	22487.4
19.86	22071.9
19.88	22920.9
19.9	22397.1
19.92	21728.8
19.94	21837.1
19.96	21674.6
19.98	23155.7
20	22649.9
20.02	22649.9
20.04	22884.7
20.06	22017.8
20.08	21981.6
20.1	22379
20.12	21475.9
20.14	22433.2
20.16	22397.1
20.18	21331.4
20.2	21945.5
20.22	21150.8
20.24	22108.1
20.26	22686.1
20.28	21114.7
20.3	21421.7
20.32	21439.8
20.34	20970.2
20.36	21873.3
20.38	20753.4
20.4	21999.7
20.42	20952.1
20.44	21566.2
20.46	21421.7
20.48	21566.2
20.5	21403.6
20.52	21855.2
20.54	21638.5
20.56	20988.2
20.58	20319.9
20.6	21530.1
20.62	21042.4
20.64	21819.1
20.66	21205
20.68	19633.6
20.7	19904.5
20.72	21259.1
20.74	21403.6
20.76	21710.7
20.78	20879.8
20.8	20681.2
20.82	20500.5
20.84	20410.2
20.86	20970.2
20.88	20825.7
20.9	20012.9
20.92	21132.7
20.94	21331.4
20.96	20717.3
20.98	20608.9
21	20897.9
21.02	20934
21.04	19778.1
21.06	20464.4
21.08	20374.1
21.1	20536.7
21.12	19832.2
21.14	20861.8
21.16	21457.8
21.18	20645
21.2	20067
21.22	20789.5
21.24	20410.2
21.26	19633.6
21.28	20067
21.3	21385.6
21.32	19814.2
21.34	19561.3
21.36	20843.7
21.38	21638.5
21.4	20843.7
21.42	20681.2
21.44	21981.6
21.46	20374.1
21.48	19705.8
21.5	19814.2
21.52	21241.1
21.54	21060.5
21.56	21801
21.58	21494
21.6	21620.4
21.62	20681.2
21.64	21638.5
21.66	20843.7
21.68	21566.2
21.7	21042.4
21.72	20699.2
21.74	20572.8
21.76	21186.9
21.78	20825.7
21.8	19958.7
21.82	21223
21.84	19705.8
21.86	20717.3
21.88	20825.7
21.9	21313.3
21.92	20012.9
21.94	20356
21.96	20934
21.98	20789.5
22	21114.7
22.02	19398.7
22.04	20211.5
22.06	20428.3
22.08	19471
22.1	20627
22.12	19850.3
22.14	20789.5
22.16	20608.9
22.18	20103.2
22.2	20663.1
22.22	18856.9
22.24	20193.5
22.26	19778.1
22.28	20554.7
22.3	19597.4
22.32	20500.5
22.34	19633.6
22.36	20374.1
22.38	20193.5
22.4	20825.7
22.42	20283.8
22.44	20843.7
22.46	20627
22.48	20861.8
22.5	21638.5
22.52	21223
22.54	21855.2
22.56	21295.3
22.58	21421.7
22.6	20482.5
22.62	21692.6
22.64	22324.8
22.66	20446.3
22.68	20500.5
22.7	21349.5
22.72	20012.9
22.74	19940.6
22.76	20789.5
22.78	20265.7
22.8	21530.1
22.82	20067
22.84	19922.5
22.86	20193.5
22.88	19687.7
22.9	19760
22.92	19579.4
22.94	18622.1
22.96	19236.2
22.98	19452.9
23	19561.3
23.02	19922.5
23.04	20916
23.06	19163.9
23.08	19760
23.1	20067
23.12	20247.7
23.14	19471
23.16	19543.2
23.18	19127.8
23.2	19904.5
23.22	20283.8
23.24	20175.4
23.26	20012.9
23.28	19127.8
23.3	19163.9
23.32	19669.7
23.34	20410.2
23.36	20464.4
23.38	20753.4
23.4	19958.7
23.42	19308.4
23.44	20103.2
23.46	19723.9
23.48	19272.3
23.5	19633.6
23.52	19850.3
23.54	19200.1
23.56	19832.2
23.58	18333.1
23.6	19380.7
23.62	18730.4
23.64	19398.7
23.66	19904.5
23.68	19525.2
23.7	18838.8
23.72	19037.5
23.74	19163.9
23.76	20265.7
23.78	19796.1
23.8	19037.5
23.82	19163.9
23.84	19398.7
23.86	19398.7
23.88	18911.1
23.9	18585.9
23.92	18513.7
23.94	18351.1
23.96	19055.6
23.98	18477.6
24	19651.6
24.02	20193.5
24.04	20518.6
24.06	19543.2
24.08	20681.2
24.1	18297
24.12	19109.8
24.14	18604
24.16	18983.3
24.18	18694.3
24.2	18730.4
24.22	19579.4
24.24	18640.1
24.26	19507.1
24.28	18838.8
24.3	18026
24.32	19669.7
24.34	17863.5
24.36	18838.8
24.38	17917.7
24.4	19326.5
24.42	18405.3
24.44	18315
24.46	18152.5
24.48	18820.8
24.5	18387.3
24.52	18080.2
24.54	18712.4
24.56	17719
24.58	17845.4
24.6	17953.8
24.62	17773.2
24.64	18513.7
24.66	17430
24.68	17989.9
24.7	18387.3
24.72	18152.5
24.74	18242.8
24.76	17899.6
24.78	18802.7
24.8	17321.6
24.82	18152.5
24.84	17610.6
24.86	17845.4
24.88	17773.2
24.9	19019.4
24.92	18260.8
24.94	18640.1
24.96	17737
24.98	18098.3
25	17646.7
25.02	18116.3
25.04	18567.9
25.06	18080.2
25.08	18477.6
25.1	18242.8
25.12	18351.1
25.14	18513.7
25.16	18477.6
25.18	18387.3
25.2	17285.5
25.22	18459.5
25.24	18062.1
25.26	19055.6
25.28	19290.4
25.3	18730.4
25.32	18874.9
25.34	19326.5
25.36	17466.1
25.38	17592.5
25.4	18766.6
25.42	18333.1
25.44	18622.1
25.46	17664.8
25.48	18567.9
25.5	18622.1
25.52	19489.1
25.54	18965.3
25.56	18477.6
25.58	18640.1
25.6	18459.5
25.62	18405.3
25.64	19651.6
25.66	19236.2
25.68	18423.4
25.7	18297
25.72	18874.9
25.74	19507.1
25.76	18856.9
25.78	19633.6
25.8	19308.4
25.82	19705.8
25.84	20283.8
25.86	20338
25.88	19651.6
25.9	20103.2
25.92	20067
25.94	20428.3
25.96	20518.6
25.98	19994.8
26	20247.7
26.02	19507.1
26.04	20229.6
26.06	20193.5
26.08	20356
26.1	19073.6
26.12	20247.7
26.14	19705.8
26.16	18676.3
26.18	19362.6
26.2	19416.8
26.22	19200.1
26.24	19182
26.26	18405.3
26.28	18893
26.3	18062.1
26.32	17231.3
26.34	18098.3
26.36	17863.5
26.38	18188.6
26.4	16544.9
26.42	17484.2
26.44	18585.9
26.46	17520.3
26.48	17141
26.5	17809.3
26.52	17122.9
26.54	18206.6
26.56	17899.6
26.58	18026
26.6	17664.8
26.62	16671.4
26.64	16382.4
26.66	16454.6
26.68	16960.4
26.7	16418.5
26.72	17195.2
26.74	16599.1
26.76	15298.6
26.78	16382.4
26.8	16906.2
26.82	15497.3
26.84	16039.2
26.86	16472.7
26.88	16147.6
26.9	15786.3
26.92	15443.1
26.94	16057.2
26.96	16075.3
26.98	16255.9
27	16833.9
27.02	14413.6
27.04	15443.1
27.06	15804.4
27.08	14738.7
27.1	16111.4
27.12	15750.2
27.14	15226.4
27.16	15786.3
27.18	14919.3
27.2	16237.9
27.22	14847.1
27.24	16183.7
27.26	15425.1
27.28	15262.5
27.3	15659.9
27.32	15677.9
27.34	14774.8
27.36	15352.8
27.38	16779.7
27.4	14522
27.42	15009.6
27.44	15551.5
27.46	15714.1
27.48	14467.8
27.5	14070.4
27.52	16093.4
27.54	15388.9
27.56	15118
27.58	15696
27.6	15533.4
27.62	15479.3
27.64	15966.9
27.66	15334.8
27.68	15154.1
27.7	15334.8
27.72	14847.1
27.74	14522
27.76	15009.6
27.78	14720.6
27.8	14467.8
27.82	14287.2
27.84	14648.4
27.86	14540
27.88	14612.3
27.9	14305.2
27.92	14485.8
27.94	13980.1
27.96	14251
27.98	15063.8
28	14287.2
28.02	14106.5
28.04	15334.8
28.06	15063.8
28.08	14233
28.1	15298.6
28.12	15388.9
28.14	14666.5
28.16	15100
28.18	15497.3
28.2	14124.6
28.22	14287.2
28.24	14774.8
28.26	15551.5
28.28	15298.6
28.3	16255.9
28.32	14955.5
28.34	14214.9
28.36	14991.6
28.38	15515.4
28.4	15515.4
28.42	15732.1
28.44	14774.8
28.46	15623.8
28.48	14865.1
28.5	15154.1
28.52	15298.6
28.54	15118
28.56	14684.5
28.58	15334.8
28.6	15768.3
28.62	16563
28.64	16183.7
28.66	17682.8
28.68	17068.7
28.7	16960.4
28.72	16382.4
28.74	17321.6
28.76	17773.2
28.78	16689.4
28.8	16942.3
28.82	17682.8
28.84	17122.9
28.86	16906.2
28.88	16418.5
28.9	17249.3
28.92	16635.2
28.94	16490.7
28.96	16563
28.98	15425.1
29	16653.3
29.02	15822.4
29.04	16508.8
29.06	15280.6
29.08	14449.7
29.1	14522
29.12	14377.5
29.14	14142.7
29.16	15100
29.18	14720.6
29.2	14540
29.22	14648.4
29.24	13763.4
29.26	14305.2
29.28	13600.8
29.3	14088.5
29.32	14034.3
29.34	14991.6
29.36	13980.1
29.38	14305.2
29.4	14413.6
29.42	14106.5
29.44	14251
29.46	14377.5
29.48	14160.7
29.5	13185.4
29.52	13564.7
29.54	13835.6
29.56	13077
29.58	13871.7
29.6	13275.7
29.62	13239.6
29.64	13239.6
29.66	13492.4
29.68	13871.7
29.7	13456.3
29.72	13474.4
29.74	12733.8
29.76	13366
29.78	13835.6
29.8	14052.4
29.82	13781.4
29.84	13528.5
29.86	14214.9
29.88	12878.3
29.9	13546.6
29.92	13185.4
29.94	13040.9
29.96	13618.9
29.98	12697.7
30	13745.3
30.02	13871.7
30.04	13149.2
30.06	13113.1
30.08	13329.9
30.1	12914.4
30.12	13077
30.14	12968.6
30.16	12372.6
30.18	13673
30.2	13835.6
30.22	12842.2
30.24	12860.2
30.26	12733.8
30.28	12444.8
30.3	12715.8
30.32	12643.5
30.34	12517.1
30.36	13022.8
30.38	12968.6
30.4	12607.4
30.42	12426.8
30.44	13817.5
30.46	12191.9
30.48	12535.1
30.5	12300.3
30.52	13853.7
30.54	13077
30.56	12932.5
30.58	12300.3
30.6	12715.8
30.62	12661.6
30.64	12643.5
30.66	12842.2
30.68	13040.9
30.7	12661.6
30.72	13275.7
30.74	12553.2
30.76	13167.3
30.78	12824.1
30.8	11921
30.82	11957.1
30.84	13095.1
30.86	12860.2
30.88	12986.7
30.9	12842.2
30.92	12228.1
30.94	11722.3
30.96	12029.4
30.98	12101.6
31	12101.6
31.02	12426.8
31.04	13149.2
31.06	11812.6
31.08	11614
31.1	12697.7
31.12	12101.6
31.14	11740.4
31.16	13040.9
31.18	12986.7
31.2	12246.1
31.22	11975.2
31.24	13275.7
31.26	12788
31.28	12607.4
31.3	13239.6
31.32	12769.9
31.34	11884.9
31.36	13058.9
31.38	12336.4
31.4	12426.8
31.42	12589.3
31.44	12968.6
31.46	12950.6
31.48	12083.6
31.5	12318.4
31.52	12137.8
31.54	11722.3
31.56	11957.1
31.58	12372.6
31.6	12210
31.62	12047.5
31.64	12282.3
31.66	12282.3
31.68	11993.3
31.7	11722.3
31.72	12769.9
31.74	12553.2
31.76	12480.9
31.78	12842.2
31.8	12011.3
31.82	12390.6
31.84	12282.3
31.86	12372.6
31.88	12065.5
31.9	12137.8
31.92	13366
31.94	12264.2
31.96	12426.8
31.98	11415.3
32	12119.7
32.02	11830.7
32.04	11993.3
32.06	12553.2
32.08	10963.7
32.1	12011.3
32.12	12047.5
32.14	11957.1
32.16	12083.6
32.18	11884.9
32.2	11144.3
32.22	12480.9
32.24	11758.5
32.26	11884.9
32.28	12173.9
32.3	12607.4
32.32	12191.9
32.34	12480.9
32.36	12065.5
32.38	12029.4
32.4	12011.3
32.42	11776.5
32.44	11668.1
32.46	12354.5
32.48	11939.1
32.5	12191.9
32.52	11144.3
32.54	11126.3
32.56	12173.9
32.58	11830.7
32.6	11632
32.62	11017.9
32.64	11595.9
32.66	10999.8
32.68	11939.1
32.7	11108.2
32.72	12065.5
32.74	11650.1
32.76	12372.6
32.78	11884.9
32.8	12210
32.82	11939.1
32.84	11939.1
32.86	11234.7
32.88	11469.5
32.9	12047.5
32.92	11668.1
32.94	12011.3
32.96	11939.1
32.98	12101.6
33	11577.8
33.02	11794.6
33.04	11704.3
33.06	11884.9
33.08	11234.7
33.1	11379.2
33.12	11379.2
33.14	11722.3
33.16	11541.7
33.18	11541.7
33.2	11054
33.22	11505.6
33.24	11577.8
33.26	11144.3
33.28	12318.4
33.3	11325
33.32	12047.5
33.34	11523.6
33.36	12011.3
33.38	11614
33.4	11957.1
33.42	11758.5
33.44	11541.7
33.46	11577.8
33.48	11541.7
33.5	11921
33.52	11559.8
33.54	11361.1
33.56	10873.4
33.58	10421.9
33.6	12065.5
33.62	11017.9
33.64	10837.3
33.66	11559.8
33.68	10963.7
33.7	11595.9
33.72	10801.2
33.74	10060.6
33.76	11650.1
33.78	10945.7
33.8	11198.5
33.82	10728.9
33.84	11126.3
33.86	11632
33.88	11017.9
33.9	11415.3
33.92	11541.7
33.94	12065.5
33.96	11722.3
33.98	10855.4
34	11776.5
34.02	11397.2
34.04	11559.8
34.06	11180.5
34.08	10855.4
34.1	11776.5
34.12	11559.8
34.14	10747
34.16	11036
34.18	10855.4
34.2	10855.4
34.22	11884.9
34.24	10403.8
34.26	11126.3
34.28	11144.3
34.3	10692.8
34.32	10494.1
34.34	10873.4
34.36	10765
34.38	11397.2
34.4	11090.2
34.42	11325
34.44	11921
34.46	10873.4
34.48	11252.7
34.5	11162.4
34.52	10241.2
34.54	10566.4
34.56	11433.3
34.58	10476
34.6	11198.5
34.62	10223.2
34.64	11722.3
34.66	10620.5
34.68	11614
34.7	10747
34.72	10909.5
34.74	10494.1
34.76	10692.8
34.78	10963.7
34.8	10891.5
34.82	11126.3
34.84	11017.9
34.86	9879.99
34.88	11523.6
34.9	10512.2
34.92	10548.3
34.94	11090.2
34.96	11451.4
34.98	11505.6
35	11072.1
35.02	10783.1
35.04	10819.2
35.06	10403.8
35.08	10945.7
35.1	10909.5
35.12	10349.6
35.14	11054
35.16	10277.4
35.18	10024.5
35.2	10710.9
35.22	10873.4
35.24	10295.4
35.26	11036
35.28	11722.3
35.3	10783.1
35.32	10674.7
35.34	10476
35.36	10548.3
35.38	10205.1
35.4	10295.4
35.42	10801.2
35.44	10638.6
35.46	11072.1
35.48	10728.9
35.5	10548.3
35.52	11054
35.54	11144.3
35.56	11541.7
35.58	10060.6
35.6	10909.5
35.62	10584.4
35.64	11794.6
35.66	11559.8
35.68	11595.9
35.7	11180.5
35.72	11614
35.74	11415.3
35.76	11054
35.78	11433.3
35.8	10963.7
35.82	10728.9
35.84	11180.5
35.86	10548.3
35.88	11361.1
35.9	10439.9
35.92	11036
35.94	10349.6
35.96	10855.4
35.98	11108.2
36	11252.7
36.02	10909.5
36.04	10349.6
36.06	10295.4
36.08	10710.9
36.1	10277.4
36.12	10169
36.14	10150.9
36.16	10674.7
36.18	10728.9
36.2	10945.7
36.22	10927.6
36.24	10855.4
36.26	11957.1
36.28	10223.2
36.3	10385.7
36.32	10277.4
36.34	11632
36.36	11812.6
36.38	11632
36.4	10945.7
36.42	11325
36.44	11650.1
36.46	11650.1
36.48	11523.6
36.5	11921
36.52	11884.9
36.54	11469.5
36.56	11090.2
36.58	11306.9
36.6	10945.7
36.62	11180.5
36.64	11957.1
36.66	11180.5
36.68	11108.2
36.7	11126.3
36.72	11505.6
36.74	10855.4
36.76	10819.2
36.78	10981.8
36.8	11054
36.82	10548.3
36.84	10187.1
36.86	10620.5
36.88	10421.9
36.9	10765
36.92	10620.5
36.94	10476
36.96	10765
36.98	10078.7
37	10494.1
37.02	10295.4
37.04	10909.5
37.06	10169
37.08	10458
37.1	10150.9
37.12	11036
37.14	9934.18
37.16	10439.9
37.18	11577.8
37.2	9428.44
37.22	10692.8
37.24	10620.5
37.26	10313.5
37.28	10458
37.3	10295.4
37.32	10006.4
37.34	9428.44
37.36	10150.9
37.38	10223.2
37.4	10169
37.42	9591
37.44	9446.5
37.46	10223.2
37.48	9934.18
37.5	9699.37
37.52	9988.37
37.54	9247.82
37.56	10349.6
37.58	10530.2
37.6	10385.7
37.62	10060.6
37.64	9374.25
37.66	10223.2
37.68	10096.7
37.7	9988.37
37.72	10331.5
37.74	9988.37
37.76	9139.45
37.78	10187.1
37.8	9265.88
37.82	10169
37.84	9356.19
37.86	9735.5
37.88	9103.32
37.9	9446.5
37.92	9717.43
37.94	9446.5
37.96	9356.19
37.98	9645.19
38	9789.68
38.02	9609.06
38.04	9735.5
38.06	9609.06
38.08	10078.7
38.1	10421.9
38.12	9988.37
38.14	10747
38.16	9446.5
38.18	10494.1
38.2	9717.43
38.22	10259.3
38.24	10187.1
38.26	10187.1
38.28	9717.43
38.3	9428.44
38.32	10313.5
38.34	10024.5
38.36	9446.5
38.38	9861.93
38.4	9789.68
38.42	9536.81
38.44	9879.99
38.46	10096.7
38.48	10277.4
38.5	9916.12
38.52	8886.58
38.54	9500.69
38.56	9175.57
38.58	10024.5
38.6	9789.68
38.62	9356.19
38.64	9193.63
38.66	9392.32
38.68	10132.9
38.7	9536.81
38.72	8940.76
38.74	8651.77
38.76	9591
38.78	9229.76
38.8	9627.12
38.82	9338.13
38.84	9753.56
38.86	9302.01
38.88	9157.51
38.9	9338.13
38.92	9861.93
38.94	9482.63
38.96	9067.2
38.98	9861.93
39	10277.4
39.02	10674.7
39.04	9013.01
39.06	8868.51
39.08	9085.26
39.1	9410.38
39.12	9518.75
39.14	9699.37
39.16	9717.43
39.18	9193.63
39.2	9338.13
39.22	9356.19
39.24	9464.57
39.26	10042.6
39.28	9356.19
39.3	9609.06
39.32	9627.12
39.34	8416.96
39.36	10187.1
39.38	9627.12
39.4	9283.94
39.42	9085.26
39.44	9175.57
39.46	9934.18
39.48	9049.14
39.5	9392.32
39.52	8850.45
39.54	9157.51
39.56	9247.82
39.58	9518.75
39.6	9157.51
39.62	9825.81
39.64	9789.68
39.66	8940.76
39.68	9428.44
39.7	8760.14
39.72	9013.01
39.74	8669.83
39.76	9193.63
39.78	9031.07
39.8	9157.51
39.82	9591
39.84	9591
39.86	9193.63
39.88	8940.76
39.9	9464.57
39.92	8958.83
39.94	9157.51
39.96	9175.57
39.98	9031.07
40	8543.4
40.02	9482.63
40.04	9536.81
40.06	9825.81
40.08	9356.19
40.1	8218.28
40.12	9013.01
40.14	8814.33
40.16	9175.57
40.18	9031.07
40.2	8290.53
40.22	9536.81
40.24	8940.76
40.26	8344.71
40.28	9229.76
40.3	9031.07
40.32	8886.58
40.34	9211.7
40.36	9428.44
40.38	9193.63
40.4	9518.75
40.42	8850.45
40.44	9464.57
40.46	9500.69
40.48	8651.77
40.5	8615.64
40.52	9121.38
40.54	8705.96
40.56	9645.19
40.58	9283.94
40.6	8994.95
40.62	9211.7
40.64	9265.88
40.66	8850.45
40.68	9139.45
40.7	9283.94
40.72	8615.64
40.74	8958.83
40.76	9356.19
40.78	8633.71
40.8	9049.14
40.82	8850.45
40.84	9229.76
40.86	8705.96
40.88	9627.12
40.9	9663.25
40.92	9952.24
40.94	9410.38
40.96	9446.5
40.98	8742.08
41	9175.57
41.02	8778.2
41.04	9410.38
41.06	8832.39
41.08	9572.94
41.1	9410.38
41.12	9067.2
41.14	9302.01
41.16	9067.2
41.18	8904.64
41.2	9518.75
41.22	8778.2
41.24	8615.64
41.26	9247.82
41.28	8958.83
41.3	8940.76
41.32	8904.64
41.34	10060.6
41.36	8994.95
41.38	8940.76
41.4	8687.89
41.42	9536.81
41.44	9500.69
41.46	8724.02
41.48	9049.14
41.5	9193.63
41.52	8633.71
41.54	9645.19
41.56	9717.43
41.58	9031.07
41.6	8868.51
41.62	9211.7
41.64	8958.83
41.66	9229.76
41.68	9374.25
41.7	8814.33
41.72	9356.19
41.74	9645.19
41.76	9302.01
41.78	9247.82
41.8	8904.64
41.82	9157.51
41.84	8922.7
41.86	9320.07
41.88	9410.38
41.9	10114.8
41.92	9320.07
41.94	9627.12
41.96	9410.38
41.98	9302.01
42	9121.38
42.02	9699.37
42.04	9753.56
42.06	8724.02
42.08	9446.5
42.1	9211.7
42.12	9338.13
42.14	10349.6
42.16	9879.99
42.18	8886.58
42.2	8994.95
42.22	9320.07
42.24	9265.88
42.26	9320.07
42.28	9482.63
42.3	8435.02
42.32	9121.38
42.34	8976.89
42.36	8435.02
42.38	9103.32
42.4	8416.96
42.42	8200.21
42.44	9410.38
42.46	9861.93
42.48	8525.33
42.5	8507.27
42.52	9265.88
42.54	8868.51
42.56	9518.75
42.58	9591
42.6	9085.26
42.62	8615.64
42.64	8850.45
42.66	9211.7
42.68	8561.46
42.7	8742.08
42.72	8471.15
42.74	9103.32
42.76	8669.83
42.78	9193.63
42.8	8471.15
42.82	8850.45
42.84	8922.7
42.86	9103.32
42.88	9283.94
42.9	8669.83
42.92	8850.45
42.94	8416.96
42.96	8814.33
42.98	8922.7
43	7929.28
43.02	9211.7
43.04	8362.77
43.06	8976.89
43.08	8615.64
43.1	9320.07
43.12	9392.32
43.14	8886.58
43.16	8435.02
43.18	8416.96
43.2	8398.9
43.22	8778.2
43.24	8453.08
43.26	7549.98
43.28	8290.53
43.3	7911.22
43.32	8760.14
43.34	7857.03
43.36	8742.08
43.38	8507.27
43.4	8633.71
43.42	8308.59
43.44	8886.58
43.46	8832.39
43.48	8579.52
43.5	8633.71
43.52	8489.21
43.54	8362.77
43.56	8922.7
43.58	8073.78
43.6	8687.89
43.62	8380.84
43.64	8037.66
43.66	8344.71
43.68	8416.96
43.7	8507.27
43.72	8001.53
43.74	8380.84
43.76	8380.84
43.78	8669.83
43.8	8435.02
43.82	8398.9
43.84	8073.78
43.86	7802.85
43.88	8200.21
43.9	8218.28
43.92	8091.84
43.94	8525.33
43.96	8109.9
43.98	8055.72
44	8164.09
44.02	8398.9
44.04	7712.54
44.06	8615.64
44.08	8146.03
44.1	8344.71
44.12	8398.9
44.14	8254.4
44.16	8362.77
44.18	8597.58
44.2	8778.2
44.22	8435.02
44.24	8868.51
44.26	8489.21
44.28	8507.27
44.3	8272.46
44.32	7531.92
44.34	7947.34
44.36	8597.58
44.38	8308.59
44.4	8073.78
44.42	8001.53
44.44	8868.51
44.46	8489.21
44.48	8164.09
44.5	8326.65
44.52	8091.84
44.54	7983.47
44.56	8236.34
44.58	7947.34
44.6	8832.39
44.62	8326.65
44.64	8308.59
44.66	8290.53
44.68	8940.76
44.7	8760.14
44.72	8453.08
44.74	8037.66
44.76	8651.77
44.78	8344.71
44.8	7857.03
44.82	8182.15
44.84	8868.51
44.86	8362.77
44.88	8669.83
44.9	8453.08
44.92	8001.53
44.94	7911.22
44.96	6682.99
44.98	8308.59
45	7983.47
45.02	8164.09
45.04	8127.97
45.06	8308.59
45.08	7549.98
45.1	8543.4
45.12	8290.53
45.14	7875.1
45.16	8073.78
45.18	7802.85
45.2	8001.53
45.22	8236.34
45.24	8055.72
45.26	8200.21
45.28	8001.53
45.3	7748.66
45.32	8200.21
45.34	8055.72
45.36	7441.6
45.38	7297.11
45.4	8037.66
45.42	7857.03
45.44	7838.97
45.46	7820.91
45.48	8182.15
45.5	7730.6
45.52	7513.85
45.54	7784.79
45.56	8055.72
45.58	8435.02
45.6	8164.09
45.62	7658.35
45.64	8362.77
45.66	7640.29
45.68	8146.03
45.7	7586.1
45.72	7423.54
45.74	7820.91
45.76	8218.28
45.78	8326.65
45.8	7875.1
45.82	7838.97
45.84	8109.9
45.86	7224.86
45.88	7206.8
45.9	7694.47
45.92	7766.72
45.94	7947.34
45.96	8308.59
45.98	7495.79
46	8435.02
46.02	7784.79
46.04	8272.46
46.06	6899.74
46.08	6809.43
46.1	7206.8
46.12	7604.16
46.14	7748.66
46.16	7513.85
46.18	7658.35
46.2	7387.42
46.22	7640.29
46.24	7857.03
46.26	7893.16
46.28	7152.61
46.3	7857.03
46.32	7640.29
46.34	7730.6
46.36	7838.97
46.38	7658.35
46.4	7857.03
46.42	7568.04
46.44	8308.59
46.46	7766.72
46.48	8037.66
46.5	7658.35
46.52	7640.29
46.54	7405.48
46.56	7423.54
46.58	7531.92
46.6	7188.73
46.62	7640.29
46.64	7477.73
46.66	7206.8
46.68	8435.02
46.7	7387.42
46.72	7676.41
46.74	7477.73
46.76	6899.74
46.78	7405.48
46.8	8146.03
46.82	7405.48
46.84	7369.36
46.86	7224.86
46.88	7712.54
46.9	7224.86
46.92	7062.3
46.94	7766.72
46.96	7279.05
46.98	7315.17
47	7459.67
47.02	7008.11
47.04	6881.68
47.06	8019.59
47.08	7784.79
47.1	7098.42
47.12	7694.47
47.14	7965.41
47.16	7242.92
47.18	7712.54
47.2	7297.11
47.22	7730.6
47.24	8290.53
47.26	7875.1
47.28	7838.97
47.3	7622.23
47.32	7369.36
47.34	7911.22
47.36	7802.85
47.38	8272.46
47.4	7929.28
47.42	8019.59
47.44	8037.66
47.46	7477.73
47.48	8380.84
47.5	8543.4
47.52	7206.8
47.54	7929.28
47.56	8272.46
47.58	7333.23
47.6	8705.96
47.62	8507.27
47.64	7929.28
47.66	7857.03
47.68	8001.53
47.7	7911.22
47.72	8164.09
47.74	7766.72
47.76	7513.85
47.78	7784.79
47.8	8344.71
47.82	8362.77
47.84	7495.79
47.86	8055.72
47.88	7911.22
47.9	7802.85
47.92	7893.16
47.94	8182.15
47.96	8326.65
47.98	8398.9
48	7622.23
48.02	8146.03
48.04	7242.92
48.06	7748.66
48.08	7694.47
48.1	7965.41
48.12	7802.85
48.14	7929.28
48.16	7983.47
48.18	8182.15
48.2	7351.29
48.22	7676.41
48.24	7134.55
48.26	8272.46
48.28	7820.91
48.3	7911.22
48.32	7333.23
48.34	7333.23
48.36	7604.16
48.38	7279.05
48.4	7152.61
48.42	7405.48
48.44	6845.55
48.46	7387.42
48.48	7568.04
48.5	7423.54
48.52	7333.23
48.54	7116.49
48.56	6863.62
48.58	7260.98
48.6	7098.42
48.62	7513.85
48.64	6646.87
48.66	6484.31
48.68	6357.88
48.7	7026.18
48.72	6646.87
48.74	6845.55
48.76	6827.49
48.78	6827.49
48.8	6845.55
48.82	7188.73
48.84	7279.05
48.86	7242.92
48.88	6755.24
48.9	7586.1
48.92	6971.99
48.94	7206.8
48.96	6791.37
48.98	6990.05
49	7080.36
49.02	7008.11
49.04	7351.29
49.06	7531.92
49.08	7477.73
49.1	7784.79
49.12	7549.98
49.14	7495.79
49.16	8561.46
49.18	9031.07
49.2	8416.96
49.22	9211.7
49.24	9265.88
49.26	9302.01
49.28	9247.82
49.3	9211.7
49.32	9374.25
49.34	10385.7
49.36	10205.1
49.38	9265.88
49.4	9392.32
49.42	8886.58
49.44	9067.2
49.46	9464.57
49.48	9103.32
49.5	9193.63
49.52	10385.7
49.54	10331.5
49.56	10837.3
49.58	9139.45
49.6	8507.27
49.62	8525.33
49.64	8814.33
49.66	8832.39
49.68	9085.26
49.7	8687.89
49.72	8525.33
49.74	7784.79
49.76	7857.03
49.78	8127.97
49.8	7604.16
49.82	7802.85
49.84	7802.85
49.86	8127.97
49.88	7965.41
49.9	7838.97
49.92	7441.6
49.94	7549.98
49.96	7586.1
49.98	7549.98
50	7369.36
50.02	7279.05
50.04	8182.15
50.06	7441.6
50.08	7315.17
50.1	7477.73
50.12	8037.66
50.14	7730.6
50.16	7315.17
50.18	6899.74
50.2	7026.18
50.22	6791.37
50.24	7405.48
50.26	6935.86
50.28	6394
50.3	7008.11
50.32	6881.68
50.34	6520.44
50.36	7116.49
50.38	6682.99
50.4	6592.68
50.42	7080.36
50.44	6737.18
50.46	6105.01
50.48	6899.74
50.5	6285.63
50.52	6032.76
50.54	6628.81
50.56	6755.24
50.58	6086.94
50.6	6646.87
50.62	6430.12
50.64	6357.88
50.66	6773.31
50.68	6701.06
50.7	6249.5
50.72	6610.75
50.74	6628.81
50.76	6881.68
50.78	6610.75
50.8	5960.51
50.82	6375.94
50.84	6719.12
50.86	6556.56
50.88	7206.8
50.9	6719.12
50.92	6267.56
50.94	7026.18
50.96	6664.93
50.98	6538.5
51	6484.31
51.02	6538.5
51.04	7098.42
51.06	7260.98
51.08	7549.98
51.1	7766.72
51.12	6809.43
51.14	7423.54
51.16	7279.05
51.18	6899.74
51.2	6412.06
51.22	6917.8
51.24	7333.23
51.26	6592.68
51.28	6682.99
51.3	6845.55
51.32	6682.99
51.34	6592.68
51.36	6773.31
51.38	6321.75
51.4	6249.5
51.42	6881.68
51.44	6610.75
51.46	6791.37
51.48	7026.18
51.5	7279.05
51.52	7026.18
51.54	6971.99
51.56	7477.73
51.58	6737.18
51.6	6755.24
51.62	7080.36
51.64	7206.8
51.66	6032.76
51.68	5942.45
51.7	6592.68
51.72	6520.44
51.74	6538.5
51.76	6971.99
51.78	6610.75
51.8	6177.25
51.82	6068.88
51.84	6610.75
51.86	6231.44
51.88	6628.81
51.9	6159.19
51.92	6520.44
51.94	6014.69
51.96	5942.45
51.98	6285.63
52	6032.76
52.02	6303.69
52.04	6032.76
52.06	6285.63
52.08	6213.38
52.1	6719.12
52.12	6646.87
52.14	6086.94
52.16	5942.45
52.18	6159.19
52.2	6285.63
52.22	6430.12
52.24	5906.32
52.26	6123.07
52.28	6267.56
52.3	6014.69
52.32	6123.07
52.34	6791.37
52.36	6267.56
52.38	6177.25
52.4	5779.89
52.42	6466.25
52.44	6592.68
52.46	5707.64
52.48	5527.02
52.5	5527.02
52.52	6177.25
52.54	6809.43
52.56	6159.19
52.58	6141.13
52.6	6123.07
52.62	6646.87
52.64	5960.51
52.66	5779.89
52.68	5870.2
52.7	5852.14
52.72	6050.82
52.74	6339.81
52.76	5689.58
52.78	6394
52.8	6303.69
52.82	6159.19
52.84	6177.25
52.86	5942.45
52.88	5545.08
52.9	5906.32
52.92	6375.94
52.94	5689.58
52.96	5545.08
52.98	5454.77
53	5870.2
53.02	5942.45
53.04	5852.14
53.06	5563.14
53.08	6375.94
53.1	5617.33
53.12	6159.19
53.14	5057.4
53.16	5779.89
53.18	5400.58
53.2	6032.76
53.22	6466.25
53.24	6538.5
53.26	5725.7
53.28	5761.82
53.3	5797.95
53.32	5689.58
53.34	5725.7
53.36	6231.44
53.38	5436.71
53.4	5563.14
53.42	5978.57
53.44	7134.55
53.46	5472.83
53.48	5689.58
53.5	6050.82
53.52	5635.39
53.54	6556.56
53.56	5490.89
53.58	5906.32
53.6	5508.95
53.62	5689.58
53.64	5888.26
53.66	5400.58
53.68	5671.51
53.7	5996.63
53.72	5328.33
53.74	5003.21
53.76	5382.52
53.78	6412.06
53.8	5292.21
53.82	5057.4
53.84	5671.51
53.86	5436.71
53.88	5725.7
53.9	5436.71
53.92	5364.46
53.94	5689.58
53.96	5581.2
53.98	5310.27
54	5472.83
54.02	5400.58
54.04	5364.46
54.06	5472.83
54.08	5779.89
54.1	5888.26
54.12	5111.59
54.14	5003.21
54.16	5147.71
54.18	5581.2
54.2	5671.51
54.22	5653.45
54.24	5418.64
54.26	5003.21
54.28	5617.33
54.3	5599.27
54.32	6032.76
54.34	5689.58
54.36	5093.53
54.38	4822.59
54.4	4804.53
54.42	5310.27
54.44	5219.96
54.46	5021.28
54.48	5508.95
54.5	5057.4
54.52	5563.14
54.54	4768.41
54.56	5057.4
54.58	5111.59
54.6	5454.77
54.62	5382.52
54.64	5274.15
54.66	5075.46
54.68	5183.84
54.7	4425.23
54.72	4876.78
54.74	5364.46
54.76	5436.71
54.78	5725.7
54.8	5075.46
54.82	4587.79
54.84	5400.58
54.86	5238.02
54.88	4822.59
54.9	4840.66
54.92	5545.08
54.94	5328.33
54.96	4714.22
54.98	5256.08
55	4804.53
55.02	5527.02
55.04	4786.47
55.06	5111.59
55.08	5129.65
55.1	5707.64
55.12	5147.71
55.14	4876.78
55.16	5003.21
55.18	5274.15
55.2	5725.7
55.22	5129.65
55.24	4768.41
55.26	4696.16
55.28	4949.03
55.3	4858.72
55.32	5274.15
55.34	4660.03
55.36	5364.46
55.38	4407.16
55.4	4605.85
55.42	4714.22
55.44	5201.9
55.46	4768.41
55.48	4533.6
55.5	4479.41
55.52	4678.1
55.54	4714.22
55.56	5256.08
55.58	5238.02
55.6	5147.71
55.62	5129.65
55.64	4623.91
55.66	4768.41
55.68	4786.47
55.7	4822.59
55.72	4623.91
55.74	4407.16
55.76	4515.54
55.78	4750.34
55.8	4678.1
55.82	4497.47
55.84	4660.03
55.86	4912.9
55.88	4768.41
55.9	4497.47
55.92	4894.84
55.94	4118.17
55.96	5111.59
55.98	4840.66
56	5039.34
56.02	4840.66
56.04	4280.73
56.06	4696.16
56.08	5201.9
56.1	5039.34
56.12	4894.84
56.14	4461.35
56.16	4930.97
56.18	4623.91
56.2	5364.46
56.22	4912.9
56.24	5454.77
56.26	5183.84
56.28	4804.53
56.3	4551.66
56.32	5292.21
56.34	4967.09
56.36	5003.21
56.38	4786.47
56.4	5147.71
56.42	5436.71
56.44	4930.97
56.46	4949.03
56.48	4551.66
56.5	4334.92
56.52	4949.03
56.54	4786.47
56.56	5852.14
56.58	5689.58
56.6	5743.76
56.62	5256.08
56.64	4894.84
56.66	4461.35
56.68	4732.28
56.7	4515.54
56.72	4389.1
56.74	4569.72
56.76	4262.67
56.78	4768.41
56.8	4750.34
56.82	4280.73
56.84	4425.23
56.86	4714.22
56.88	4407.16
56.9	4352.98
56.92	4334.92
56.94	4262.67
56.96	4407.16
56.98	4443.29
57	4587.79
57.02	4461.35
57.04	4479.41
57.06	4280.73
57.08	4172.36
57.1	4371.04
57.12	4840.66
57.14	4298.79
57.16	4587.79
57.18	5093.53
57.2	4696.16
57.22	4930.97
57.24	4425.23
57.26	4389.1
57.28	3847.24
57.3	4425.23
57.32	4461.35
57.34	4280.73
57.36	4660.03
57.38	4949.03
57.4	4551.66
57.42	4930.97
57.44	4623.91
57.46	4497.47
57.48	4641.97
57.5	4515.54
57.52	3919.49
57.54	4497.47
57.56	4678.1
57.58	4280.73
57.6	4190.42
57.62	4118.17
57.64	4316.85
57.66	4641.97
57.68	4533.6
57.7	4316.85
57.72	4352.98
57.74	4045.92
57.76	4280.73
57.78	4262.67
57.8	4623.91
57.82	4587.79
57.84	4443.29
57.86	4497.47
57.88	4425.23
57.9	4172.36
57.92	4605.85
57.94	4497.47
57.96	4461.35
57.98	4136.23
58	4352.98
58.02	4479.41
58.04	4497.47
58.06	3955.61
58.08	4226.54
58.1	4172.36
58.12	3756.93
58.14	4280.73
58.16	4045.92
58.18	4605.85
58.2	4497.47
58.22	4027.86
58.24	4407.16
58.26	4425.23
58.28	4352.98
58.3	4732.28
58.32	4696.16
58.34	4154.29
58.36	3774.99
58.38	4389.1
58.4	4298.79
58.42	4262.67
58.44	3919.49
58.46	4009.8
58.48	4641.97
58.5	4569.72
58.52	4045.92
58.54	4407.16
58.56	4045.92
58.58	3973.67
58.6	4063.98
58.62	4316.85
58.64	3919.49
58.66	4280.73
58.68	3793.05
58.7	4045.92
58.72	4533.6
58.74	4425.23
58.76	4027.86
58.78	4226.54
58.8	4389.1
58.82	4082.05
58.84	3829.18
58.86	4172.36
58.88	4334.92
58.9	3811.11
58.92	4479.41
58.94	3883.36
58.96	3937.55
58.98	3937.55
59	4551.66
59.02	4334.92
59.04	3829.18
59.06	3666.62
59.08	4262.67
59.1	4136.23
59.12	4009.8
59.14	4172.36
59.16	4244.6
59.18	4027.86
59.2	3323.44
59.22	4063.98
59.24	3811.11
59.26	4100.11
59.28	4678.1
59.3	4154.29
59.32	4027.86
59.34	4443.29
59.36	4244.6
59.38	4208.48
59.4	3576.31
59.42	3774.99
59.44	3829.18
59.46	4082.05
59.48	3829.18
59.5	4063.98
59.52	3919.49
59.54	3901.42
59.56	4082.05
59.58	4298.79
59.6	4316.85
59.62	3811.11
59.64	4009.8
59.66	4352.98
59.68	3919.49
59.7	4352.98
59.72	3594.37
59.74	4190.42
59.76	3756.93
59.78	3702.74
59.8	3991.73
59.82	4389.1
59.84	3793.05
59.86	4154.29
59.88	4100.11
59.9	4082.05
59.92	4280.73
59.94	4515.54
59.96	3811.11
59.98	3684.68
60	4298.79
