Sample	 
Comments	 
Filename	C:\Data\西出研\梅木\20211102オペ\ベッセル\LiTFSI24_2θ_θ.raw
Goniometer	SmartLab(In-plane)
Attachment	Zステージ単独
Monochromater	None
X	0
Y	0
Z	0.07744
ScanningMode	2Theta/Theta
ScanningType	Continuos Scanning
X-Ray	40kV/30mA
入射スリット	2/3deg
受光スリット1	20.000mm
受光スリット2	20.000mm
Cu_K-beta	
Start	5
Stop	60
Step	0.02
Speed	21.6746
Offset	0
5	47340.9
5.02	47828.6
5.04	45336
5.06	45661.1
5.08	44161.9
5.1	41813.9
5.12	42319.6
5.14	41687.4
5.16	39483.9
5.18	39610.3
5.2	38815.6
5.22	38219.5
5.24	37280.3
5.26	36124.3
5.28	36232.7
5.3	32277.1
5.32	32782.8
5.34	33288.5
5.36	33017.6
5.38	33396.9
5.4	30543.1
5.42	31951.9
5.44	29694.2
5.46	30741.8
5.48	30001.2
5.5	29495.5
5.52	28754.9
5.54	29116.2
5.56	28736.9
5.58	26948.7
5.6	27562.8
5.62	28050.5
5.64	28917.5
5.66	25756.6
5.68	27382.2
5.7	26406.9
5.72	25738.6
5.74	27653.1
5.76	26551.4
5.78	26424.9
5.8	25648.2
5.82	27147.4
5.84	25052.2
5.86	27237.7
5.88	26352.7
5.9	26009.5
5.92	26424.9
5.94	26099.8
5.96	26352.7
5.98	26190.1
6	25594.1
6.02	25901.1
6.04	25521.8
6.06	25070.3
6.08	26894.5
6.1	25702.4
6.12	24456.1
6.14	26768.1
6.16	26948.7
6.18	26117.9
6.2	25594.1
6.22	24781.3
6.24	26208.2
6.26	24979.9
6.28	25449.6
6.3	24907.7
6.32	26424.9
6.34	25612.1
6.36	25088.3
6.38	26172.1
6.4	24510.3
6.42	25828.9
6.44	25901.1
6.46	25323.1
6.48	25088.3
6.5	26424.9
6.52	26190.1
6.54	26099.8
6.56	25413.4
6.58	25720.5
6.6	24961.9
6.62	24004.6
6.64	24600.6
6.66	24781.3
6.68	24564.5
6.7	24889.6
6.72	25557.9
6.74	25539.9
6.76	24004.6
6.78	24925.8
6.8	24998
6.82	25901.1
6.84	25901.1
6.86	24510.3
6.88	24257.5
6.9	25846.9
6.92	24799.3
6.94	25449.6
6.96	25268.9
6.98	24564.5
7	25088.3
7.02	24456.1
7.04	24420
7.06	24763.2
7.08	24907.7
7.1	24925.8
7.12	25395.4
7.14	24239.4
7.16	25250.9
7.18	26081.7
7.2	24871.6
7.22	24456.1
7.24	24402
7.26	25268.9
7.28	25557.9
7.3	25828.9
7.32	25774.7
7.34	25648.2
7.36	25178.6
7.38	25214.8
7.4	25521.8
7.42	23950.4
7.44	24618.7
7.46	24763.2
7.48	25160.6
7.5	24420
7.52	25016.1
7.54	23462.7
7.56	23968.5
7.58	25214.8
7.6	24817.4
7.62	24022.7
7.64	24203.3
7.66	26135.9
7.68	24528.4
7.7	24691
7.72	24149.1
7.74	24221.3
7.76	24492.3
7.78	24131
7.8	24618.7
7.82	24582.6
7.84	25287
7.86	24817.4
7.88	24438.1
7.9	23589.2
7.92	24420
7.94	24293.6
7.96	23589.2
7.98	24979.9
8	25865
8.02	24456.1
8.04	23661.4
8.06	24076.8
8.08	24691
8.1	24456.1
8.12	25774.7
8.14	24889.6
8.16	24329.7
8.18	23679.5
8.2	24492.3
8.22	24365.8
8.24	24474.2
8.26	24420
8.28	24076.8
8.3	24131
8.32	24709
8.34	23968.5
8.36	24239.4
8.38	23787.8
8.4	24564.5
8.42	25576
8.44	25214.8
8.46	25016.1
8.48	23571.1
8.5	23607.2
8.52	23950.4
8.54	24492.3
8.56	24456.1
8.58	24781.3
8.6	24456.1
8.62	24654.8
8.64	24492.3
8.66	23661.4
8.68	24022.7
8.7	22866.7
8.72	23408.5
8.74	24022.7
8.76	24113
8.78	23372.4
8.8	23950.4
8.82	24907.7
8.84	24474.2
8.86	24709
8.88	24943.8
8.9	24781.3
8.92	24907.7
8.94	24311.7
8.96	25666.3
8.98	23065.4
9	22613.8
9.02	24113
9.04	23896.2
9.06	24582.6
9.08	24871.6
9.1	24528.4
9.12	24149.1
9.14	24329.7
9.16	23354.4
9.18	23372.4
9.2	23769.8
9.22	24076.8
9.24	23191.8
9.26	24727.1
9.28	23914.3
9.3	24149.1
9.32	23914.3
9.34	25088.3
9.36	24474.2
9.38	24817.4
9.4	23462.7
9.42	23372.4
9.44	24257.5
9.46	23101.5
9.48	24365.8
9.5	24167.2
9.52	23733.7
9.54	23300.2
9.56	23878.2
9.58	23336.3
9.6	24311.7
9.62	23372.4
9.64	23751.7
9.66	23733.7
9.68	24185.2
9.7	23661.4
9.72	23264
9.74	23390.5
9.76	25359.3
9.78	24185.2
9.8	23824
9.82	24203.3
9.84	24004.6
9.86	24149.1
9.88	23950.4
9.9	24022.7
9.92	25359.3
9.94	23101.5
9.96	23155.7
9.98	24727.1
10	24871.6
10.02	23733.7
10.04	23733.7
10.06	23246
10.08	23137.6
10.1	25034.1
10.12	24420
10.14	23372.4
10.16	24311.7
10.18	25196.7
10.2	23751.7
10.22	23950.4
10.24	22866.7
10.26	24022.7
10.28	23733.7
10.3	24365.8
10.32	24094.9
10.34	25268.9
10.36	24076.8
10.38	24113
10.4	25305.1
10.42	24925.8
10.44	24203.3
10.46	24383.9
10.48	24998
10.5	25702.4
10.52	24022.7
10.54	26713.9
10.56	26479.1
10.58	25287
10.6	25052.2
10.62	26226.2
10.64	25503.8
10.66	26732
10.68	26424.9
10.7	26262.4
10.72	27039
10.74	27942.1
10.76	25937.2
10.78	26605.5
10.8	26750
10.82	27924.1
10.84	27201.6
10.86	26045.6
10.88	26912.6
10.9	25377.3
10.92	25377.3
10.94	24727.1
10.96	24709
10.98	25287
11	25016.1
11.02	23896.2
11.04	24564.5
11.06	23986.5
11.08	23986.5
11.1	24943.8
11.12	24329.7
11.14	25413.4
11.16	23787.8
11.18	25792.7
11.2	25088.3
11.22	24239.4
11.24	24365.8
11.26	24131
11.28	24979.9
11.3	24709
11.32	25323.1
11.34	24907.7
11.36	23932.3
11.38	24709
11.4	25052.2
11.42	24943.8
11.44	24293.6
11.46	25377.3
11.48	23625.3
11.5	24510.3
11.52	25106.4
11.54	24456.1
11.56	24347.8
11.58	24040.7
11.6	24943.8
11.62	25124.4
11.64	24040.7
11.66	23842
11.68	24745.1
11.7	25395.4
11.72	24907.7
11.74	26226.2
11.76	24528.4
11.78	23842
11.8	23733.7
11.82	25196.7
11.84	25160.6
11.86	24618.7
11.88	24040.7
11.9	24582.6
11.92	25196.7
11.94	25973.4
11.96	24998
11.98	24510.3
12	24022.7
12.02	24961.9
12.04	25034.1
12.06	24691
12.08	24745.1
12.1	25268.9
12.12	24943.8
12.14	24383.9
12.16	24727.1
12.18	25250.9
12.2	24672.9
12.22	24709
12.24	25666.3
12.26	24889.6
12.28	25052.2
12.3	25124.4
12.32	25178.6
12.34	26244.3
12.36	24835.5
12.38	25431.5
12.4	24709
12.42	25088.3
12.44	24925.8
12.46	24492.3
12.48	25467.6
12.5	25214.8
12.52	24727.1
12.54	23625.3
12.56	24727.1
12.58	25305.1
12.6	24492.3
12.62	24799.3
12.64	23932.3
12.66	24058.8
12.68	25178.6
12.7	25359.3
12.72	25142.5
12.74	26316.5
12.76	25648.2
12.78	25034.1
12.8	25503.8
12.82	25305.1
12.84	26298.5
12.86	25846.9
12.88	25666.3
12.9	25702.4
12.92	25648.2
12.94	26334.6
12.96	26298.5
12.98	25250.9
13	25016.1
13.02	25106.4
13.04	25178.6
13.06	25666.3
13.08	24889.6
13.1	24564.5
13.12	26226.2
13.14	26334.6
13.16	25106.4
13.18	24582.6
13.2	25901.1
13.22	26280.4
13.24	26533.3
13.26	25991.4
13.28	25467.6
13.3	26750
13.32	26677.8
13.34	26081.7
13.36	25594.1
13.38	26641.7
13.4	26280.4
13.42	25395.4
13.44	24257.5
13.46	25774.7
13.48	25883.1
13.5	25702.4
13.52	24998
13.54	25070.3
13.56	26533.3
13.58	24347.8
13.6	25052.2
13.62	25341.2
13.64	25648.2
13.66	25756.6
13.68	24799.3
13.7	24239.4
13.72	25973.4
13.74	26641.7
13.76	26587.5
13.78	26135.9
13.8	26533.3
13.82	25756.6
13.84	26099.8
13.86	25088.3
13.88	25883.1
13.9	27093.2
13.92	25250.9
13.94	24799.3
13.96	26027.6
13.98	25142.5
14	25214.8
14.02	24528.4
14.04	25539.9
14.06	25576
14.08	24925.8
14.1	24691
14.12	26352.7
14.14	26045.6
14.16	26334.6
14.18	25287
14.2	26027.6
14.22	25539.9
14.24	25431.5
14.26	25557.9
14.28	25702.4
14.3	26172.1
14.32	25467.6
14.34	26840.3
14.36	25395.4
14.38	24691
14.4	25395.4
14.42	26045.6
14.44	25178.6
14.46	26172.1
14.48	27671.2
14.5	26713.9
14.52	26388.8
14.54	25323.1
14.56	25684.4
14.58	24727.1
14.6	25088.3
14.62	26461
14.64	24456.1
14.66	24961.9
14.68	27346.1
14.7	25684.4
14.72	25034.1
14.74	26135.9
14.76	24889.6
14.78	25720.5
14.8	26388.8
14.82	25594.1
14.84	25883.1
14.86	24347.8
14.88	25973.4
14.9	26569.4
14.92	27093.2
14.94	25124.4
14.96	25594.1
14.98	26768.1
15	26117.9
15.02	26587.5
15.04	24871.6
15.06	25503.8
15.08	25774.7
15.1	26786.2
15.12	26388.8
15.14	25973.4
15.16	25034.1
15.18	25052.2
15.2	24546.5
15.22	25792.7
15.24	25901.1
15.26	26551.4
15.28	25250.9
15.3	25305.1
15.32	25810.8
15.34	24420
15.36	25232.8
15.38	25594.1
15.4	24889.6
15.42	25576
15.44	24871.6
15.46	25485.7
15.48	26713.9
15.5	25973.4
15.52	26154
15.54	24347.8
15.56	25449.6
15.58	25684.4
15.6	25341.2
15.62	25648.2
15.64	25720.5
15.66	24889.6
15.68	24474.2
15.7	24871.6
15.72	25594.1
15.74	24546.5
15.76	25973.4
15.78	25016.1
15.8	25539.9
15.82	23625.3
15.84	24456.1
15.86	25738.6
15.88	26334.6
15.9	24853.5
15.92	25431.5
15.94	25756.6
15.96	25160.6
15.98	24889.6
16	24799.3
16.02	24492.3
16.04	24420
16.06	24004.6
16.08	24799.3
16.1	24618.7
16.12	23914.3
16.14	23516.9
16.16	25034.1
16.18	25214.8
16.2	25250.9
16.22	25395.4
16.24	24925.8
16.26	24293.6
16.28	24203.3
16.3	24889.6
16.32	24347.8
16.34	23661.4
16.36	25557.9
16.38	24961.9
16.4	24618.7
16.42	25016.1
16.44	24961.9
16.46	24383.9
16.48	23589.2
16.5	23625.3
16.52	24745.1
16.54	24167.2
16.56	24745.1
16.58	24889.6
16.6	25449.6
16.62	23824
16.64	24618.7
16.66	25666.3
16.68	25612.1
16.7	25341.2
16.72	25901.1
16.74	25449.6
16.76	23083.4
16.78	26262.4
16.8	25034.1
16.82	24600.6
16.84	25232.8
16.86	25160.6
16.88	24907.7
16.9	25883.1
16.92	26117.9
16.94	26840.3
16.96	26677.8
16.98	26876.5
17	26677.8
17.02	28411.8
17.04	29730.3
17.06	30958.5
17.08	31012.7
17.1	31337.8
17.12	31608.8
17.14	30344.4
17.16	32746.7
17.18	32168.7
17.2	31428.1
17.22	30543.1
17.24	28520.1
17.26	28827.2
17.28	26190.1
17.3	25684.4
17.32	26172.1
17.34	23047.3
17.36	24383.9
17.38	23661.4
17.4	23318.2
17.42	24149.1
17.44	23661.4
17.46	23408.5
17.48	23516.9
17.5	23137.6
17.52	23227.9
17.54	23372.4
17.56	24907.7
17.58	23318.2
17.6	23480.8
17.62	22722.2
17.64	23119.5
17.66	23607.2
17.68	23209.9
17.7	24239.4
17.72	24618.7
17.74	24781.3
17.76	23914.3
17.78	24329.7
17.8	23209.9
17.82	22704.1
17.84	22776.4
17.86	24293.6
17.88	23047.3
17.9	23083.4
17.92	22722.2
17.94	23787.8
17.96	22902.8
17.98	23209.9
18	23715.6
18.02	23932.3
18.04	23047.3
18.06	23607.2
18.08	23354.4
18.1	24347.8
18.12	24456.1
18.14	23480.8
18.16	23896.2
18.18	24149.1
18.2	24853.5
18.22	25901.1
18.24	25521.8
18.26	26262.4
18.28	27183.5
18.3	27454.5
18.32	26677.8
18.34	26840.3
18.36	26912.6
18.38	26443
18.4	25648.2
18.42	25088.3
18.44	25539.9
18.46	23444.7
18.48	23300.2
18.5	23715.6
18.52	22270.6
18.54	23318.2
18.56	24113
18.58	23246
18.6	22433.2
18.62	23372.4
18.64	22830.6
18.66	22541.6
18.68	23029.2
18.7	23155.7
18.72	23444.7
18.74	22866.7
18.76	24004.6
18.78	23462.7
18.8	23571.1
18.82	24961.9
18.84	25214.8
18.86	24727.1
18.88	26966.8
18.9	27346.1
18.92	28303.4
18.94	29874.8
18.96	30687.6
18.98	31879.7
19	34137.5
19.02	34787.7
19.04	36846.8
19.06	36828.7
19.08	37804.1
19.1	36593.9
19.12	36359.1
19.14	33559.5
19.16	34191.6
19.18	34245.8
19.2	32782.8
19.22	29567.7
19.24	26551.4
19.26	25666.3
19.28	24817.4
19.3	24203.3
19.32	23950.4
19.34	24185.2
19.36	24582.6
19.38	23824
19.4	24474.2
19.42	23986.5
19.44	23643.3
19.46	24961.9
19.48	24058.8
19.5	22957
19.52	24131
19.54	22866.7
19.56	23787.8
19.58	22631.9
19.6	21927.4
19.62	22577.7
19.64	22162.3
19.66	21873.3
19.68	21855.2
19.7	21403.6
19.72	21999.7
19.74	21692.6
19.76	21891.3
19.78	21367.5
19.8	21439.8
19.82	21494
19.84	21674.6
19.86	22595.7
19.88	21096.6
19.9	21349.5
19.92	21909.4
19.94	22505.4
19.96	20103.2
19.98	20897.9
20	19976.7
20.02	21331.4
20.04	21963.6
20.06	21241.1
20.08	21584.3
20.1	21349.5
20.12	21819.1
20.14	21584.3
20.16	19236.2
20.18	20897.9
20.2	21512
20.22	21241.1
20.24	21367.5
20.26	20139.3
20.28	20753.4
20.3	20645
20.32	20356
20.34	21620.4
20.36	21223
20.38	21186.9
20.4	21078.5
20.42	21494
20.44	22053.9
20.46	21566.2
20.48	21186.9
20.5	21205
20.52	21421.7
20.54	19886.4
20.56	20608.9
20.58	19651.6
20.6	19326.5
20.62	21042.4
20.64	20735.3
20.66	20030.9
20.68	21349.5
20.7	20049
20.72	20301.9
20.74	21024.3
20.76	21403.6
20.78	20663.1
20.8	20861.8
20.82	20807.6
20.84	19163.9
20.86	21891.3
20.88	20753.4
20.9	21241.1
20.92	20500.5
20.94	20879.8
20.96	19380.7
20.98	20861.8
21	21530.1
21.02	21168.8
21.04	20410.2
21.06	19452.9
21.08	20518.6
21.1	20789.5
21.12	20608.9
21.14	21259.1
21.16	21421.7
21.18	20952.1
21.2	20554.7
21.22	19976.7
21.24	20446.3
21.26	20590.8
21.28	20572.8
21.3	20301.9
21.32	20771.5
21.34	20392.2
21.36	20428.3
21.38	20897.9
21.4	20735.3
21.42	20554.7
21.44	20464.4
21.46	20572.8
21.48	20916
21.5	21078.5
21.52	21945.5
21.54	21259.1
21.56	20139.3
21.58	20934
21.6	20934
21.62	22144.2
21.64	20518.6
21.66	20229.6
21.68	21457.8
21.7	20843.7
21.72	21295.3
21.74	20265.7
21.76	20590.8
21.78	21078.5
21.8	20301.9
21.82	20012.9
21.84	20265.7
21.86	19489.1
21.88	19326.5
21.9	19434.9
21.92	19814.2
21.94	19723.9
21.96	20265.7
21.98	20717.3
22	20265.7
22.02	19127.8
22.04	19850.3
22.06	18712.4
22.08	20139.3
22.1	19760
22.12	19940.6
22.14	19091.7
22.16	19109.8
22.18	19868.4
22.2	20536.7
22.22	19543.2
22.24	19669.7
22.26	19308.4
22.28	19290.4
22.3	20663.1
22.32	19344.6
22.34	20482.5
22.36	20374.1
22.38	19471
22.4	20356
22.42	19507.1
22.44	19416.8
22.46	19471
22.48	19615.5
22.5	20012.9
22.52	20608.9
22.54	19976.7
22.56	19236.2
22.58	19687.7
22.6	19236.2
22.62	20193.5
22.64	19543.2
22.66	19651.6
22.68	19489.1
22.7	19525.2
22.72	20049
22.74	19380.7
22.76	19633.6
22.78	20012.9
22.8	20283.8
22.82	20085.1
22.84	20789.5
22.86	21602.3
22.88	22071.9
22.9	22342.9
22.92	23209.9
22.94	21873.3
22.96	23209.9
22.98	23155.7
23	23968.5
23.02	23733.7
23.04	24925.8
23.06	23625.3
23.08	24474.2
23.1	24022.7
23.12	23227.9
23.14	24203.3
23.16	22758.3
23.18	23119.5
23.2	21909.4
23.22	22487.4
23.24	21475.9
23.26	21168.8
23.28	20681.2
23.3	20897.9
23.32	19868.4
23.34	19868.4
23.36	19398.7
23.38	19452.9
23.4	19452.9
23.42	18549.8
23.44	20085.1
23.46	19507.1
23.48	18983.3
23.5	19145.9
23.52	18856.9
23.54	19796.1
23.56	20012.9
23.58	19507.1
23.6	18929.1
23.62	18549.8
23.64	19109.8
23.66	19055.6
23.68	19994.8
23.7	19200.1
23.72	19073.6
23.74	19579.4
23.76	18730.4
23.78	19398.7
23.8	18874.9
23.82	19380.7
23.84	19380.7
23.86	18929.1
23.88	19471
23.9	18784.6
23.92	18531.8
23.94	19091.7
23.96	19019.4
23.98	18026
24	18712.4
24.02	17646.7
24.04	18820.8
24.06	19254.2
24.08	18874.9
24.1	19236.2
24.12	19308.4
24.14	19796.1
24.16	18838.8
24.18	20193.5
24.2	18802.7
24.22	19218.1
24.24	19326.5
24.26	19434.9
24.28	19597.4
24.3	19037.5
24.32	20103.2
24.34	18694.3
24.36	20265.7
24.38	21078.5
24.4	20247.7
24.42	21024.3
24.44	22649.9
24.46	24528.4
24.48	23751.7
24.5	24275.5
24.52	25594.1
24.54	26154
24.56	25521.8
24.58	26406.9
24.6	27255.8
24.62	27689.3
24.64	26262.4
24.66	26587.5
24.68	25828.9
24.7	26948.7
24.72	25630.2
24.74	25521.8
24.76	26063.7
24.78	25521.8
24.8	24925.8
24.82	25160.6
24.84	24961.9
24.86	25124.4
24.88	25160.6
24.9	24781.3
24.92	24889.6
24.94	24275.5
24.96	22938.9
24.98	22848.6
25	21674.6
25.02	21873.3
25.04	21909.4
25.06	21024.3
25.08	20916
25.1	20030.9
25.12	19597.4
25.14	19561.3
25.16	18820.8
25.18	19958.7
25.2	19019.4
25.22	18405.3
25.24	18712.4
25.26	17700.9
25.28	18459.5
25.3	17863.5
25.32	17989.9
25.34	18405.3
25.36	17592.5
25.38	18206.6
25.4	18278.9
25.42	17411.9
25.44	17321.6
25.46	17881.5
25.48	16689.4
25.5	17303.5
25.52	17032.6
25.54	17448
25.56	16996.5
25.58	16292.1
25.6	17411.9
25.62	17375.8
25.64	17159
25.66	17628.7
25.68	17357.7
25.7	16544.9
25.72	15425.1
25.74	17664.8
25.76	16617.2
25.78	16111.4
25.8	16526.9
25.82	15894.7
25.84	17068.7
25.86	17303.5
25.88	16183.7
25.9	16761.7
25.92	16526.9
25.94	16508.8
25.96	17141
25.98	16725.5
26	16563
26.02	16617.2
26.04	17303.5
26.06	16147.6
26.08	16346.2
26.1	16797.8
26.12	16689.4
26.14	17122.9
26.16	16219.8
26.18	16797.8
26.2	15244.5
26.22	15750.2
26.24	15677.9
26.26	16237.9
26.28	15768.3
26.3	15858.6
26.32	14720.6
26.34	15533.4
26.36	15623.8
26.38	16057.2
26.4	16274
26.42	16183.7
26.44	16111.4
26.46	16129.5
26.48	16274
26.5	15894.7
26.52	16183.7
26.54	16960.4
26.56	15930.8
26.58	15063.8
26.6	15479.3
26.62	16833.9
26.64	16075.3
26.66	15569.6
26.68	15677.9
26.7	15461.2
26.72	16039.2
26.74	16075.3
26.76	15659.9
26.78	16436.6
26.8	15262.5
26.82	15985
26.84	14829
26.86	14847.1
26.88	15623.8
26.9	15948.9
26.92	15479.3
26.94	15696
26.96	15154.1
26.98	16039.2
27	16274
27.02	15461.2
27.04	15659.9
27.06	15208.3
27.08	14865.1
27.1	15370.9
27.12	15045.8
27.14	14576.2
27.16	14413.6
27.18	15732.1
27.2	15443.1
27.22	16093.4
27.24	14847.1
27.26	15262.5
27.28	14684.5
27.3	15587.6
27.32	15208.3
27.34	14648.4
27.36	15027.7
27.38	14612.3
27.4	14431.7
27.42	16057.2
27.44	16057.2
27.46	15009.6
27.48	14684.5
27.5	14937.4
27.52	14612.3
27.54	13636.9
27.56	13907.9
27.58	14413.6
27.6	14413.6
27.62	15118
27.64	14774.8
27.66	15045.8
27.68	14467.8
27.7	14070.4
27.72	14811
27.74	15009.6
27.76	14160.7
27.78	14196.8
27.8	15334.8
27.82	14612.3
27.84	14413.6
27.86	15352.8
27.88	13925.9
27.9	14829
27.92	14413.6
27.94	14756.8
27.96	15045.8
27.98	14467.8
28	13781.4
28.02	13853.7
28.04	13673
28.06	13510.5
28.08	14341.3
28.1	13763.4
28.12	14666.5
28.14	15461.2
28.16	13564.7
28.18	14792.9
28.2	13275.7
28.22	14594.2
28.24	15388.9
28.26	14305.2
28.28	14359.4
28.3	13293.7
28.32	15172.2
28.34	13239.6
28.36	14106.5
28.38	14973.5
28.4	14214.9
28.42	15081.9
28.44	14269.1
28.46	14594.2
28.48	14016.2
28.5	14558.1
28.52	14847.1
28.54	14576.2
28.56	15027.7
28.58	14937.4
28.6	14269.1
28.62	15027.7
28.64	14883.2
28.66	14377.5
28.68	15461.2
28.7	15804.4
28.72	16255.9
28.74	16581.1
28.76	15786.3
28.78	16274
28.8	16183.7
28.82	17068.7
28.84	16129.5
28.86	15948.9
28.88	16671.4
28.9	16237.9
28.92	15948.9
28.94	15894.7
28.96	14522
28.98	16237.9
29	15280.6
29.02	15479.3
29.04	14973.5
29.06	14630.3
29.08	13889.8
29.1	14431.7
29.12	14630.3
29.14	14648.4
29.16	13889.8
29.18	13438.2
29.2	14016.2
29.22	13149.2
29.24	13889.8
29.26	12896.4
29.28	13528.5
29.3	13528.5
29.32	13781.4
29.34	13745.3
29.36	13781.4
29.38	13907.9
29.4	13907.9
29.42	13618.9
29.44	14594.2
29.46	12878.3
29.48	13980.1
29.5	13167.3
29.52	13384.1
29.54	14341.3
29.56	13546.6
29.58	12173.9
29.6	12625.4
29.62	13095.1
29.64	13185.4
29.66	13474.4
29.68	14251
29.7	13257.6
29.72	13618.9
29.74	13239.6
29.76	13167.3
29.78	14016.2
29.8	13582.7
29.82	13113.1
29.84	13095.1
29.86	14070.4
29.88	13492.4
29.9	13402.1
29.92	13347.9
29.94	13167.3
29.96	12842.2
29.98	13763.4
30	13239.6
30.02	13203.4
30.04	13384.1
30.06	13293.7
30.08	13528.5
30.1	13293.7
30.12	13004.7
30.14	13131.2
30.16	12426.8
30.18	12715.8
30.2	13438.2
30.22	12896.4
30.24	12733.8
30.26	13257.6
30.28	12950.6
30.3	11921
30.32	13546.6
30.34	12517.1
30.36	13058.9
30.38	12896.4
30.4	13257.6
30.42	13040.9
30.44	13347.9
30.46	12968.6
30.48	13582.7
30.5	11866.8
30.52	12607.4
30.54	13040.9
30.56	11921
30.58	12715.8
30.6	12968.6
30.62	12806.1
30.64	12842.2
30.66	12264.2
30.68	12553.2
30.7	12878.3
30.72	12788
30.74	12282.3
30.76	13293.7
30.78	13113.1
30.8	12607.4
30.82	12191.9
30.84	12607.4
30.86	12300.3
30.88	12968.6
30.9	13167.3
30.92	13004.7
30.94	11487.5
30.96	13077
30.98	12426.8
31	12210
31.02	12643.5
31.04	13004.7
31.06	11993.3
31.08	12517.1
31.1	12661.6
31.12	12950.6
31.14	12733.8
31.16	12643.5
31.18	12769.9
31.2	12480.9
31.22	12517.1
31.24	12228.1
31.26	13113.1
31.28	13185.4
31.3	12282.3
31.32	12824.1
31.34	12264.2
31.36	12480.9
31.38	12806.1
31.4	12788
31.42	12318.4
31.44	12589.3
31.46	12517.1
31.48	12246.1
31.5	12968.6
31.52	12661.6
31.54	13058.9
31.56	13817.5
31.58	12499
31.6	13149.2
31.62	12300.3
31.64	12444.8
31.66	12914.4
31.68	13347.9
31.7	12462.9
31.72	13113.1
31.74	13727.2
31.76	12589.3
31.78	13871.7
31.8	13293.7
31.82	13384.1
31.84	13962
31.86	13944
31.88	14233
31.9	14359.4
31.92	14377.5
31.94	14558.1
31.96	14485.8
31.98	14323.3
32	14395.5
32.02	13582.7
32.04	13347.9
32.06	13871.7
32.08	12769.9
32.1	13167.3
32.12	13040.9
32.14	12607.4
32.16	12968.6
32.18	12426.8
32.2	12589.3
32.22	12354.5
32.24	12408.7
32.26	12426.8
32.28	12047.5
32.3	11595.9
32.32	11776.5
32.34	12480.9
32.36	12191.9
32.38	12210
32.4	11921
32.42	11722.3
32.44	12282.3
32.46	11884.9
32.48	11975.2
32.5	12535.1
32.52	12083.6
32.54	11848.8
32.56	11397.2
32.58	12029.4
32.6	12282.3
32.62	12336.4
32.64	12499
32.66	12173.9
32.68	12336.4
32.7	12607.4
32.72	12661.6
32.74	13582.7
32.76	12155.8
32.78	12408.7
32.8	12480.9
32.82	12553.2
32.84	13077
32.86	12300.3
32.88	13727.2
32.9	13781.4
32.92	13781.4
32.94	13564.7
32.96	13817.5
32.98	13889.8
33	13329.9
33.02	13311.8
33.04	13618.9
33.06	14359.4
33.08	14558.1
33.1	13962
33.12	15569.6
33.14	15298.6
33.16	16671.4
33.18	16364.3
33.2	16382.4
33.22	17375.8
33.24	18278.9
33.26	18044.1
33.28	18784.6
33.3	18513.7
33.32	17682.8
33.34	17791.2
33.36	16797.8
33.38	16039.2
33.4	16219.8
33.42	16400.4
33.44	15930.8
33.46	15190.3
33.48	13582.7
33.5	14666.5
33.52	14666.5
33.54	13384.1
33.56	12607.4
33.58	13058.9
33.6	12806.1
33.62	12137.8
33.64	12769.9
33.66	13058.9
33.68	12336.4
33.7	11957.1
33.72	11830.7
33.74	12011.3
33.76	11469.5
33.78	12426.8
33.8	11830.7
33.82	12210
33.84	12300.3
33.86	12336.4
33.88	10981.8
33.9	11794.6
33.92	11758.5
33.94	11577.8
33.96	11794.6
33.98	12029.4
34	12697.7
34.02	11704.3
34.04	12011.3
34.06	12462.9
34.08	12679.6
34.1	13004.7
34.12	12137.8
34.14	12372.6
34.16	12083.6
34.18	12842.2
34.2	12426.8
34.22	11343
34.24	11577.8
34.26	11288.8
34.28	11686.2
34.3	10873.4
34.32	12390.6
34.34	12228.1
34.36	11559.8
34.38	11830.7
34.4	10602.5
34.42	12065.5
34.44	10891.5
34.46	11469.5
34.48	11577.8
34.5	11306.9
34.52	10710.9
34.54	11072.1
34.56	12119.7
34.58	11740.4
34.6	11614
34.62	11812.6
34.64	11993.3
34.66	12697.7
34.68	12173.9
34.7	11541.7
34.72	12372.6
34.74	12715.8
34.76	11270.8
34.78	11957.1
34.8	13329.9
34.82	12119.7
34.84	11866.8
34.86	11668.1
34.88	11577.8
34.9	11379.2
34.92	11126.3
34.94	10927.6
34.96	11017.9
34.98	9789.68
35	11198.5
35.02	11270.8
35.04	10819.2
35.06	10150.9
35.08	10620.5
35.1	11144.3
35.12	10548.3
35.14	10765
35.16	11036
35.18	10620.5
35.2	10909.5
35.22	11072.1
35.24	10060.6
35.26	10367.7
35.28	10963.7
35.3	10584.4
35.32	9771.62
35.34	11108.2
35.36	10114.8
35.38	10638.6
35.4	10295.4
35.42	9771.62
35.44	10349.6
35.46	10747
35.48	10476
35.5	10638.6
35.52	11234.7
35.54	10584.4
35.56	10259.3
35.58	10765
35.6	10765
35.62	9970.3
35.64	10530.2
35.66	10367.7
35.68	10656.7
35.7	10728.9
35.72	10512.2
35.74	10765
35.76	10566.4
35.78	10349.6
35.8	10367.7
35.82	10367.7
35.84	10710.9
35.86	10620.5
35.88	10024.5
35.9	10873.4
35.92	10945.7
35.94	11072.1
35.96	10096.7
35.98	10150.9
36	10331.5
36.02	9464.57
36.04	11234.7
36.06	11288.8
36.08	10620.5
36.1	10602.5
36.12	10494.1
36.14	11469.5
36.16	11270.8
36.18	10783.1
36.2	10819.2
36.22	10909.5
36.24	11054
36.26	10855.4
36.28	11848.8
36.3	11306.9
36.32	10747
36.34	10421.9
36.36	10981.8
36.38	11126.3
36.4	11216.6
36.42	11325
36.44	11325
36.46	11216.6
36.48	11036
36.5	10349.6
36.52	10096.7
36.54	9916.12
36.56	10241.2
36.58	10891.5
36.6	10458
36.62	10024.5
36.64	10584.4
36.66	10367.7
36.68	11288.8
36.7	10295.4
36.72	10873.4
36.74	9717.43
36.76	10385.7
36.78	10187.1
36.8	10421.9
36.82	10801.2
36.84	10692.8
36.86	10656.7
36.88	10458
36.9	10187.1
36.92	9970.3
36.94	10150.9
36.96	10620.5
36.98	11054
37	10638.6
37.02	11993.3
37.04	10530.2
37.06	11415.3
37.08	11668.1
37.1	10999.8
37.12	10728.9
37.14	10981.8
37.16	10114.8
37.18	10223.2
37.2	10692.8
37.22	10458
37.24	10385.7
37.26	10421.9
37.28	10494.1
37.3	11054
37.32	10620.5
37.34	10620.5
37.36	10945.7
37.38	10259.3
37.4	10042.6
37.42	9771.62
37.44	10187.1
37.46	9789.68
37.48	9446.5
37.5	10620.5
37.52	10403.8
37.54	11090.2
37.56	10584.4
37.58	10783.1
37.6	9735.5
37.62	10096.7
37.64	10313.5
37.66	10421.9
37.68	10241.2
37.7	10295.4
37.72	10945.7
37.74	9717.43
37.76	10277.4
37.78	10909.5
37.8	11451.4
37.82	10385.7
37.84	10945.7
37.86	11505.6
37.88	11595.9
37.9	11180.5
37.92	11505.6
37.94	12173.9
37.96	12842.2
37.98	12372.6
38	13384.1
38.02	13058.9
38.04	13022.8
38.06	12806.1
38.08	12932.5
38.1	13221.5
38.12	13275.7
38.14	13474.4
38.16	13745.3
38.18	13329.9
38.2	13618.9
38.22	13095.1
38.24	12697.7
38.26	13384.1
38.28	12264.2
38.3	13167.3
38.32	12191.9
38.34	11903
38.36	11379.2
38.38	12354.5
38.4	12517.1
38.42	11577.8
38.44	10765
38.46	11758.5
38.48	11614
38.5	10638.6
38.52	10602.5
38.54	10692.8
38.56	10132.9
38.58	9753.56
38.6	9988.37
38.62	9500.69
38.64	10494.1
38.66	10945.7
38.68	10331.5
38.7	9861.93
38.72	10241.2
38.74	9789.68
38.76	9970.3
38.78	9428.44
38.8	10638.6
38.82	9898.06
38.84	9825.81
38.86	9446.5
38.88	9283.94
38.9	10169
38.92	9988.37
38.94	10150.9
38.96	9356.19
38.98	9536.81
39	9735.5
39.02	9735.5
39.04	9861.93
39.06	9572.94
39.08	9410.38
39.1	8778.2
39.12	10042.6
39.14	9554.88
39.16	9392.32
39.18	9952.24
39.2	9464.57
39.22	9302.01
39.24	9193.63
39.26	9139.45
39.28	9500.69
39.3	9320.07
39.32	8669.83
39.34	9392.32
39.36	8760.14
39.38	9139.45
39.4	8958.83
39.42	9554.88
39.44	9843.87
39.46	10078.7
39.48	8615.64
39.5	8976.89
39.52	8904.64
39.54	8850.45
39.56	9536.81
39.58	9320.07
39.6	9265.88
39.62	9049.14
39.64	9374.25
39.66	8832.39
39.68	9085.26
39.7	8922.7
39.72	9536.81
39.74	9410.38
39.76	8886.58
39.78	9934.18
39.8	9085.26
39.82	9157.51
39.84	9916.12
39.86	8904.64
39.88	8832.39
39.9	9536.81
39.92	8705.96
39.94	8651.77
39.96	9410.38
39.98	9302.01
40	9879.99
40.02	8976.89
40.04	9193.63
40.06	8507.27
40.08	8254.4
40.1	9428.44
40.12	9049.14
40.14	9031.07
40.16	9229.76
40.18	9031.07
40.2	8958.83
40.22	9031.07
40.24	8778.2
40.26	8561.46
40.28	8633.71
40.3	9193.63
40.32	9103.32
40.34	9283.94
40.36	9157.51
40.38	8615.64
40.4	9771.62
40.42	8742.08
40.44	9157.51
40.46	8940.76
40.48	8669.83
40.5	8976.89
40.52	8976.89
40.54	9031.07
40.56	9283.94
40.58	9085.26
40.6	9554.88
40.62	9103.32
40.64	8940.76
40.66	9338.13
40.68	9988.37
40.7	9554.88
40.72	9627.12
40.74	9229.76
40.76	10042.6
40.78	9879.99
40.8	10006.4
40.82	10114.8
40.84	9916.12
40.86	9861.93
40.88	9554.88
40.9	9825.81
40.92	9952.24
40.94	8796.27
40.96	9934.18
40.98	10313.5
41	9753.56
41.02	9554.88
41.04	9699.37
41.06	9934.18
41.08	9229.76
41.1	9771.62
41.12	8705.96
41.14	9067.2
41.16	9067.2
41.18	8886.58
41.2	9247.82
41.22	9356.19
41.24	9500.69
41.26	8832.39
41.28	9031.07
41.3	9031.07
41.32	9482.63
41.34	9663.25
41.36	9338.13
41.38	8724.02
41.4	8669.83
41.42	9193.63
41.44	8254.4
41.46	9265.88
41.48	9013.01
41.5	8669.83
41.52	8814.33
41.54	9374.25
41.56	9121.38
41.58	9283.94
41.6	8633.71
41.62	8272.46
41.64	8615.64
41.66	9374.25
41.68	9789.68
41.7	9609.06
41.72	9139.45
41.74	9446.5
41.76	9175.57
41.78	9302.01
41.8	9121.38
41.82	8344.71
41.84	8994.95
41.86	9681.31
41.88	9843.87
41.9	9175.57
41.92	8742.08
41.94	9356.19
41.96	8994.95
41.98	8904.64
42	9139.45
42.02	8958.83
42.04	8814.33
42.06	9392.32
42.08	9825.81
42.1	8922.7
42.12	8507.27
42.14	9211.7
42.16	8471.15
42.18	8994.95
42.2	9464.57
42.22	8958.83
42.24	10150.9
42.26	9609.06
42.28	10024.5
42.3	8832.39
42.32	8904.64
42.34	9320.07
42.36	9157.51
42.38	9013.01
42.4	8290.53
42.42	9572.94
42.44	9338.13
42.46	9229.76
42.48	9392.32
42.5	9265.88
42.52	8922.7
42.54	9139.45
42.56	8850.45
42.58	8994.95
42.6	8994.95
42.62	8561.46
42.64	8832.39
42.66	8218.28
42.68	8778.2
42.7	8633.71
42.72	8507.27
42.74	9121.38
42.76	8453.08
42.78	8687.89
42.8	8705.96
42.82	9175.57
42.84	9247.82
42.86	8651.77
42.88	8200.21
42.9	9356.19
42.92	8615.64
42.94	8922.7
42.96	8669.83
42.98	9356.19
43	9211.7
43.02	9554.88
43.04	9157.51
43.06	9031.07
43.08	8561.46
43.1	8886.58
43.12	8705.96
43.14	8019.59
43.16	8742.08
43.18	8687.89
43.2	8543.4
43.22	8705.96
43.24	8868.51
43.26	8109.9
43.28	8886.58
43.3	8669.83
43.32	8724.02
43.34	8272.46
43.36	8109.9
43.38	8778.2
43.4	8543.4
43.42	8019.59
43.44	8453.08
43.46	8326.65
43.48	8362.77
43.5	8218.28
43.52	8308.59
43.54	7929.28
43.56	8127.97
43.58	8814.33
43.6	8416.96
43.62	8796.27
43.64	8416.96
43.66	7983.47
43.68	9049.14
43.7	8597.58
43.72	8525.33
43.74	8525.33
43.76	8976.89
43.78	8055.72
43.8	8326.65
43.82	8850.45
43.84	8037.66
43.86	8543.4
43.88	9428.44
43.9	8435.02
43.92	8651.77
43.94	8760.14
43.96	8850.45
43.98	9103.32
44	9103.32
44.02	8994.95
44.04	7857.03
44.06	8886.58
44.08	8633.71
44.1	8651.77
44.12	9013.01
44.14	8868.51
44.16	8778.2
44.18	9085.26
44.2	8922.7
44.22	9067.2
44.24	9049.14
44.26	9247.82
44.28	9374.25
44.3	8958.83
44.32	10259.3
44.34	9211.7
44.36	9934.18
44.38	8850.45
44.4	8958.83
44.42	9338.13
44.44	9410.38
44.46	8940.76
44.48	9049.14
44.5	8832.39
44.52	8796.27
44.54	8976.89
44.56	8958.83
44.58	8940.76
44.6	9103.32
44.62	8760.14
44.64	8597.58
44.66	8019.59
44.68	8200.21
44.7	8597.58
44.72	8182.15
44.74	7893.16
44.76	8362.77
44.78	7748.66
44.8	7857.03
44.82	8200.21
44.84	7929.28
44.86	8127.97
44.88	7911.22
44.9	8254.4
44.92	7640.29
44.94	7640.29
44.96	8380.84
44.98	7712.54
45	8724.02
45.02	8615.64
45.04	8778.2
45.06	8146.03
45.08	7784.79
45.1	8326.65
45.12	7929.28
45.14	7929.28
45.16	8308.59
45.18	8994.95
45.2	8705.96
45.22	7911.22
45.24	8597.58
45.26	8308.59
45.28	7242.92
45.3	8218.28
45.32	8344.71
45.34	7477.73
45.36	8344.71
45.38	7947.34
45.4	7622.23
45.42	8398.9
45.44	8073.78
45.46	7513.85
45.48	7333.23
45.5	8254.4
45.52	7495.79
45.54	8525.33
45.56	8127.97
45.58	8290.53
45.6	8579.52
45.62	8200.21
45.64	8037.66
45.66	7242.92
45.68	8507.27
45.7	7802.85
45.72	7929.28
45.74	8651.77
45.76	7911.22
45.78	7838.97
45.8	7676.41
45.82	8091.84
45.84	7766.72
45.86	7712.54
45.88	7875.1
45.9	7875.1
45.92	7838.97
45.94	7857.03
45.96	7369.36
45.98	7315.17
46	7405.48
46.02	7477.73
46.04	7441.6
46.06	7188.73
46.08	7983.47
46.1	8236.34
46.12	7369.36
46.14	7911.22
46.16	7260.98
46.18	7694.47
46.2	7838.97
46.22	7947.34
46.24	7044.24
46.26	7658.35
46.28	7965.41
46.3	7531.92
46.32	7405.48
46.34	7911.22
46.36	7784.79
46.38	7604.16
46.4	7911.22
46.42	7351.29
46.44	7676.41
46.46	8164.09
46.48	7766.72
46.5	8398.9
46.52	8019.59
46.54	7206.8
46.56	7983.47
46.58	7676.41
46.6	7929.28
46.62	8073.78
46.64	7513.85
46.66	7784.79
46.68	7622.23
46.7	8597.58
46.72	8471.15
46.74	8579.52
46.76	8687.89
46.78	7784.79
46.8	8362.77
46.82	8543.4
46.84	8778.2
46.86	7802.85
46.88	8362.77
46.9	8308.59
46.92	7604.16
46.94	8146.03
46.96	7333.23
46.98	7315.17
47	8272.46
47.02	7604.16
47.04	7730.6
47.06	7947.34
47.08	7965.41
47.1	7893.16
47.12	7694.47
47.14	8272.46
47.16	7622.23
47.18	7766.72
47.2	7820.91
47.22	8525.33
47.24	7875.1
47.26	7260.98
47.28	8254.4
47.3	8091.84
47.32	8091.84
47.34	8073.78
47.36	7459.67
47.38	8218.28
47.4	7838.97
47.42	7549.98
47.44	8416.96
47.46	7549.98
47.48	8164.09
47.5	7784.79
47.52	7549.98
47.54	7152.61
47.56	7423.54
47.58	8236.34
47.6	8182.15
47.62	7748.66
47.64	8127.97
47.66	7658.35
47.68	7965.41
47.7	7640.29
47.72	7369.36
47.74	7568.04
47.76	7622.23
47.78	7983.47
47.8	7495.79
47.82	7622.23
47.84	8109.9
47.86	8398.9
47.88	7604.16
47.9	7983.47
47.92	7712.54
47.94	8416.96
47.96	7622.23
47.98	7983.47
48	7260.98
48.02	7748.66
48.04	7947.34
48.06	7766.72
48.08	7531.92
48.1	7044.24
48.12	7965.41
48.14	7260.98
48.16	7387.42
48.18	7857.03
48.2	6737.18
48.22	8164.09
48.24	7712.54
48.26	8146.03
48.28	7875.1
48.3	7893.16
48.32	7477.73
48.34	7838.97
48.36	7676.41
48.38	7586.1
48.4	7459.67
48.42	8182.15
48.44	7965.41
48.46	8019.59
48.48	7875.1
48.5	7730.6
48.52	7459.67
48.54	7766.72
48.56	7676.41
48.58	7062.3
48.6	7568.04
48.62	7044.24
48.64	7568.04
48.66	7640.29
48.68	7423.54
48.7	6935.86
48.72	7062.3
48.74	6935.86
48.76	7405.48
48.78	6935.86
48.8	7640.29
48.82	7206.8
48.84	7152.61
48.86	6899.74
48.88	7297.11
48.9	7658.35
48.92	6899.74
48.94	6990.05
48.96	6845.55
48.98	6971.99
49	7098.42
49.02	7658.35
49.04	7405.48
49.06	7170.67
49.08	7188.73
49.1	6953.93
49.12	7242.92
49.14	6881.68
49.16	7513.85
49.18	7224.86
49.2	7947.34
49.22	8958.83
49.24	8724.02
49.26	9139.45
49.28	8940.76
49.3	8380.84
49.32	8507.27
49.34	9536.81
49.36	9500.69
49.38	8760.14
49.4	8615.64
49.42	8651.77
49.44	8742.08
49.46	8976.89
49.48	8489.21
49.5	8687.89
49.52	9049.14
49.54	10006.4
49.56	10403.8
49.58	10169
49.6	9464.57
49.62	8543.4
49.64	8489.21
49.66	9320.07
49.68	8597.58
49.7	8904.64
49.72	8669.83
49.74	8380.84
49.76	8705.96
49.78	8254.4
49.8	7875.1
49.82	8001.53
49.84	8091.84
49.86	8272.46
49.88	7369.36
49.9	7622.23
49.92	7730.6
49.94	7586.1
49.96	7604.16
49.98	8001.53
50	7730.6
50.02	7658.35
50.04	7712.54
50.06	7188.73
50.08	7730.6
50.1	7622.23
50.12	8344.71
50.14	7820.91
50.16	7875.1
50.18	7983.47
50.2	7820.91
50.22	7206.8
50.24	7134.55
50.26	7477.73
50.28	7513.85
50.3	7333.23
50.32	7387.42
50.34	7586.1
50.36	7459.67
50.38	6935.86
50.4	7333.23
50.42	7170.67
50.44	7116.49
50.46	6448.19
50.48	7676.41
50.5	7242.92
50.52	6628.81
50.54	7279.05
50.56	7134.55
50.58	6755.24
50.6	6448.19
50.62	6412.06
50.64	7098.42
50.66	6556.56
50.68	6953.93
50.7	6917.8
50.72	7152.61
50.74	7369.36
50.76	7549.98
50.78	6719.12
50.8	6610.75
50.82	6249.5
50.84	6159.19
50.86	6935.86
50.88	6719.12
50.9	7098.42
50.92	7170.67
50.94	7405.48
50.96	6953.93
50.98	6394
51	7279.05
51.02	7333.23
51.04	7008.11
51.06	7477.73
51.08	7929.28
51.1	8109.9
51.12	7820.91
51.14	7766.72
51.16	7279.05
51.18	7333.23
51.2	7477.73
51.22	7080.36
51.24	7622.23
51.26	6628.81
51.28	7333.23
51.3	7531.92
51.32	7116.49
51.34	7297.11
51.36	7170.67
51.38	7260.98
51.4	6791.37
51.42	6484.31
51.44	6791.37
51.46	7116.49
51.48	6971.99
51.5	6971.99
51.52	6755.24
51.54	5942.45
51.56	6394
51.58	6791.37
51.6	6574.62
51.62	7080.36
51.64	7279.05
51.66	7026.18
51.68	6701.06
51.7	6755.24
51.72	6701.06
51.74	6249.5
51.76	6899.74
51.78	6990.05
51.8	7152.61
51.82	6809.43
51.84	7242.92
51.86	7008.11
51.88	6737.18
51.9	6574.62
51.92	6303.69
51.94	6394
51.96	6339.81
51.98	5996.63
52	6339.81
52.02	6628.81
52.04	6845.55
52.06	5942.45
52.08	6375.94
52.1	6791.37
52.12	6357.88
52.14	6664.93
52.16	6141.13
52.18	6249.5
52.2	7134.55
52.22	6556.56
52.24	6574.62
52.26	5924.38
52.28	6014.69
52.3	6213.38
52.32	6339.81
52.34	6845.55
52.36	6123.07
52.38	6556.56
52.4	6827.49
52.42	6105.01
52.44	6159.19
52.46	6177.25
52.48	6195.32
52.5	6484.31
52.52	6394
52.54	6159.19
52.56	6737.18
52.58	6014.69
52.6	6394
52.62	5816.01
52.64	6086.94
52.66	6141.13
52.68	6050.82
52.7	6285.63
52.72	6086.94
52.74	6105.01
52.76	6484.31
52.78	5996.63
52.8	5978.57
52.82	6646.87
52.84	6303.69
52.86	6213.38
52.88	6195.32
52.9	5978.57
52.92	6068.88
52.94	5888.26
52.96	6303.69
52.98	5617.33
53	5545.08
53.02	6321.75
53.04	6412.06
53.06	5888.26
53.08	6430.12
53.1	5996.63
53.12	5906.32
53.14	6285.63
53.16	6177.25
53.18	6213.38
53.2	6267.56
53.22	5978.57
53.24	6050.82
53.26	6014.69
53.28	6014.69
53.3	5707.64
53.32	5472.83
53.34	6285.63
53.36	5906.32
53.38	5418.64
53.4	5960.51
53.42	5707.64
53.44	6123.07
53.46	6484.31
53.48	5779.89
53.5	5924.38
53.52	5545.08
53.54	5960.51
53.56	5328.33
53.58	6159.19
53.6	5328.33
53.62	5581.2
53.64	5743.76
53.66	5617.33
53.68	6105.01
53.7	5563.14
53.72	5563.14
53.74	6285.63
53.76	6050.82
53.78	5888.26
53.8	6032.76
53.82	6123.07
53.84	5653.45
53.86	6267.56
53.88	5346.4
53.9	5490.89
53.92	5996.63
53.94	6249.5
53.96	5870.2
53.98	5834.07
54	5888.26
54.02	5635.39
54.04	6213.38
54.06	5797.95
54.08	6105.01
54.1	6123.07
54.12	6285.63
54.14	6086.94
54.16	5816.01
54.18	6448.19
54.2	5942.45
54.22	6394
54.24	6068.88
54.26	5563.14
54.28	6141.13
54.3	5852.14
54.32	5743.76
54.34	5635.39
54.36	5852.14
54.38	5743.76
54.4	5689.58
54.42	5779.89
54.44	5563.14
54.46	5292.21
54.48	5707.64
54.5	6086.94
54.52	4822.59
54.54	5436.71
54.56	5039.34
54.58	5617.33
54.6	5382.52
54.62	5310.27
54.64	6123.07
54.66	5183.84
54.68	5870.2
54.7	5183.84
54.72	4732.28
54.74	5490.89
54.76	5599.27
54.78	6231.44
54.8	5346.4
54.82	5075.46
54.84	5472.83
54.86	5021.28
54.88	5183.84
54.9	5924.38
54.92	5545.08
54.94	5490.89
54.96	4985.15
54.98	5382.52
55	5436.71
55.02	5563.14
55.04	5364.46
55.06	5310.27
55.08	5472.83
55.1	5725.7
55.12	5689.58
55.14	5039.34
55.16	4985.15
55.18	5563.14
55.2	6177.25
55.22	5346.4
55.24	5165.77
55.26	5364.46
55.28	5436.71
55.3	5129.65
55.32	5346.4
55.34	5256.08
55.36	4930.97
55.38	4786.47
55.4	5021.28
55.42	5400.58
55.44	4786.47
55.46	5147.71
55.48	4587.79
55.5	4515.54
55.52	5039.34
55.54	4894.84
55.56	5310.27
55.58	5418.64
55.6	5599.27
55.62	5219.96
55.64	5057.4
55.66	4858.72
55.68	5219.96
55.7	5689.58
55.72	5219.96
55.74	4840.66
55.76	4804.53
55.78	4967.09
55.8	4912.9
55.82	5256.08
55.84	5003.21
55.86	4985.15
55.88	4967.09
55.9	5147.71
55.92	4750.34
55.94	5238.02
55.96	4912.9
55.98	5057.4
56	4822.59
56.02	4605.85
56.04	5075.46
56.06	4786.47
56.08	4894.84
56.1	5003.21
56.12	5183.84
56.14	4623.91
56.16	5021.28
56.18	4930.97
56.2	5364.46
56.22	5454.77
56.24	5310.27
56.26	5761.82
56.28	5147.71
56.3	5527.02
56.32	5761.82
56.34	5617.33
56.36	5256.08
56.38	5039.34
56.4	5310.27
56.42	4967.09
56.44	4804.53
56.46	5147.71
56.48	5057.4
56.5	5310.27
56.52	4660.03
56.54	4822.59
56.56	4804.53
56.58	4316.85
56.6	4461.35
56.62	5039.34
56.64	4696.16
56.66	4389.1
56.68	5075.46
56.7	5454.77
56.72	4678.1
56.74	4660.03
56.76	4894.84
56.78	4407.16
56.8	4858.72
56.82	4298.79
56.84	4714.22
56.86	4461.35
56.88	4407.16
56.9	4623.91
56.92	4334.92
56.94	4461.35
56.96	4190.42
56.98	4714.22
57	4714.22
57.02	4316.85
57.04	4262.67
57.06	4371.04
57.08	4425.23
57.1	4100.11
57.12	4641.97
57.14	4298.79
57.16	4551.66
57.18	4136.23
57.2	5039.34
57.22	4660.03
57.24	4262.67
57.26	4876.78
57.28	4316.85
57.3	4515.54
57.32	4605.85
57.34	4425.23
57.36	4425.23
57.38	4750.34
57.4	4569.72
57.42	4208.48
57.44	4894.84
57.46	4352.98
57.48	4605.85
57.5	4876.78
57.52	4027.86
57.54	4298.79
57.56	4208.48
57.58	4389.1
57.6	4840.66
57.62	4316.85
57.64	4786.47
57.66	4497.47
57.68	4298.79
57.7	4479.41
57.72	4678.1
57.74	4100.11
57.76	4533.6
57.78	4641.97
57.8	4768.41
57.82	4407.16
57.84	4118.17
57.86	4912.9
57.88	4605.85
57.9	5003.21
57.92	4660.03
57.94	4768.41
57.96	4750.34
57.98	4244.6
58	4605.85
58.02	4298.79
58.04	3901.42
58.06	4461.35
58.08	4605.85
58.1	3847.24
58.12	4732.28
58.14	4352.98
58.16	4497.47
58.18	4551.66
58.2	4479.41
58.22	4244.6
58.24	4587.79
58.26	4641.97
58.28	4280.73
58.3	4696.16
58.32	4551.66
58.34	4226.54
58.36	4768.41
58.38	4118.17
58.4	4641.97
58.42	4443.29
58.44	4714.22
58.46	4750.34
58.48	4371.04
58.5	4208.48
58.52	4063.98
58.54	4208.48
58.56	4894.84
58.58	4551.66
58.6	4407.16
58.62	4858.72
58.64	4172.36
58.66	3865.3
58.68	4190.42
58.7	4768.41
58.72	4371.04
58.74	3973.67
58.76	4118.17
58.78	3883.36
58.8	4190.42
58.82	4407.16
58.84	4660.03
58.86	4262.67
58.88	4172.36
58.9	4533.6
58.92	4371.04
58.94	4190.42
58.96	4660.03
58.98	3919.49
59	3883.36
59.02	4371.04
59.04	4009.8
59.06	4100.11
59.08	4696.16
59.1	4334.92
59.12	4732.28
59.14	4190.42
59.16	4082.05
59.18	4407.16
59.2	4244.6
59.22	4515.54
59.24	3811.11
59.26	4533.6
59.28	4118.17
59.3	4479.41
59.32	4136.23
59.34	4551.66
59.36	4136.23
59.38	4515.54
59.4	4082.05
59.42	4027.86
59.44	4371.04
59.46	3756.93
59.48	4768.41
59.5	4497.47
59.52	3973.67
59.54	3738.86
59.56	3973.67
59.58	4208.48
59.6	4768.41
59.62	4316.85
59.64	4732.28
59.66	4497.47
59.68	4136.23
59.7	4244.6
59.72	4244.6
59.74	4660.03
59.76	4371.04
59.78	4876.78
59.8	4641.97
59.82	4786.47
59.84	4822.59
59.86	4443.29
59.88	4605.85
59.9	4425.23
59.92	4461.35
59.94	4407.16
59.96	4100.11
59.98	4894.84
60	4280.73
